BEGIN_SCAN_DATA
	FORMAT=CC-Export V1.9
	FILE_CREATION_DATE=10-Dec-2023 13:12:13
	LAST_MODIFIED=10-Dec-2023 13:12:13
	BEGIN_SCAN  1
		TASK_NAME=tba PDD Profiles
		PROGRAM=WaterTankScans
		MEAS_DATE=10-Dec-2023 12:48:35
		LINAC=Ethos1
		MODALITY=X
		ISOCENTER=1000.00
		INPLANE_AXIS=InplaneGT
		CROSSPLANE_AXIS=CrossplAB
		DEPTH_AXIS=Depth
		INPLANE_AXIS_DIR=GUN_TARGET
		CROSSPLANE_AXIS_DIR=LEFT_RIGHT
		DEPTH_AXIS_DIR=UP_DOWN
		ENERGY=6.00
		NOMINAL_DMAX=13.00
		SSD=900.00
		BLOCK=0
		WEDGE_ANGLE=0.00
		FIELD_INPLANE=80.00
		FIELD_CROSSPLANE=80.00
		FIELD_TYPE=RECTANGULAR
		GANTRY=0.00
		GANTRY_UPRIGHT_POSITION=0
		GANTRY_ROTATION=CW
		COLL_ANGLE=0.00
		COLL_OFFSET_INPLANE=0.00
		COLL_OFFSET_CROSSPLANE=0.00
		SCAN_DEVICE=BeamScan
		SCAN_DEVICE_SETUP=BARA_GUN_TARGET
		ELECTROMETER=BeamScan
		RANGE_FIELD=LOW
		RANGE_REFERENCE=LOW
		DETECTOR=THIMBLE_CHAMBER
		DETECTOR_SUBCODE=SEMIFLEX
		DETECTOR_RADIUS=2.40
		DETECTOR_NAME=PTW 31021 Semiflex 3D 668
		DETECTOR_SN=144668
		DETECTOR_CALIBRATION=500000000.00
		DETECTOR_IS_CALIBRATED=1
		DETECTOR_REFERENCE=THIMBLE_CHAMBER
		DETECTOR_REFERENCE_SUBCODE=SEMIFLEX
		DETECTOR_REFERENCE_RADIUS=2.40
		DETECTOR_REFERENCE_NAME=PTW 31021 Semiflex 3D 669
		DETECTOR_REFERENCE_SN=144669
		DETECTOR_REFERENCE_IS_CALIBRATED=0
		DETECTOR_REFERENCE_CALIBRATION=500000000.00
		DETECTOR_HV=400.0
		DETECTOR_REFERENCE_HV=400.0
		DETECTOR_ORIENTATION=HORIZONTAL
		FILTER=FFF
		SCAN_SPEED_PROFILE=2.00
		SCAN_PROF_SPEED_DEP=NONE
		SCAN_SPEED_PDD=2.00
		SCAN_PDD_SPEED_DEP=NONE
		DETECTOR_TYPE=T31021
		REF_FIELD_DEPTH=100.00
		REF_FIELD_DEFINED=ISOCENTER
		REF_FIELD_INPLANE=100.00
		REF_FIELD_CROSSPLANE=100.00
		REF_SCAN_POSITIONS=-120.00;-119.00;-118.00;-117.00;-116.00;-115.00;-114.00;-113.00;-112.00;-111.00;-110.00;-109.00;-108.00;-107.00;-106.00;-105.00;-104.00;-103.00;-102.00;-101.00;-100.00;-99.00;-98.00;-97.00;-96.00;-95.00;-94.00;-93.00;-92.00;-91.00;-90.00;-89.00;-88.00;-87.00;-86.00;-85.00;-84.00;-83.00;-82.00;-81.00;-80.00;-79.00;-78.00;-77.00;-76.00;-75.00;-74.00;-73.00;-72.00;-71.00;-70.00;-69.00;-68.00;-67.00;-66.00;-65.00;-64.00;-63.00;-62.00;-61.00;-60.00;-59.00;-58.00;-57.00;-56.00;-55.00;-54.00;-53.00;-52.00;-51.00;-50.00;-49.00;-48.00;-47.00;-46.00;-45.00;-44.00;-43.00;-42.00;-41.00;-40.00;-39.00;-38.00;-37.00;-36.00;-35.00;-34.00;-33.00;-32.00;-31.00;-30.00;-29.00;-28.00;-27.00;-26.00;-25.00;-24.00;-23.00;-22.00;-21.00;-20.00;-19.00;-18.00;-17.00;-16.00;-15.00;-14.00;-13.00;-12.00;-11.00;-10.00;-9.00;-8.00;-7.00;-6.00;-5.00;-4.00;-3.00;-2.00;-1.00;0.00;1.00;2.00;3.00;4.00;5.00;6.00;7.00;8.00;9.00;10.00;11.00;12.00;13.00;14.00;15.00;16.00;17.00;18.00;19.00;20.00;21.00;22.00;23.00;24.00;25.00;26.00;27.00;28.00;29.00;30.00;31.00;32.00;33.00;34.00;35.00;36.00;37.00;38.00;39.00;40.00;41.00;42.00;43.00;44.00;45.00;46.00;47.00;48.00;49.00;50.00;51.00;52.00;53.00;54.00;55.00;56.00;57.00;58.00;59.00;60.00;61.00;62.00;63.00;64.00;65.00;66.00;67.00;68.00;69.00;70.00;71.00;72.00;73.00;74.00;75.00;76.00;77.00;78.00;79.00;80.00;81.00;82.00;83.00;84.00;85.00;86.00;87.00;88.00;89.00;90.00;91.00;92.00;93.00;94.00;95.00;96.00;97.00;98.00;99.00;100.00;101.00;102.00;103.00;104.00;105.00;106.00;107.00;108.00;109.00;110.00;111.00;112.00;113.00;114.00;115.00;116.00;117.00;118.00;119.00;120.00;
		REF_OVERSCAN_FACTOR=1.00
		SCAN_CURVETYPE=INPLANE_PROFILE
		SCAN_DEPTH=13.00
		SCAN_OFFAXIS_INPLANE=0.00
		SCAN_OFFAXIS_CROSSPLANE=0.00
		SCAN_ANGLE=0.00
		SCAN_DIAGONAL=NOT_DIAGONAL
		SCAN_DIRECTION=POSITIVE
		MEAS_MEDIUM=WATER
		MEAS_PRESET=MEAS_CONTINUOUS_REFERENCE_SCAN
		MEAS_TIME=0.500
		MEAS_UNIT=A.U.
		PRESSURE=1005.64
		TEMPERATURE=22.23
		NORM_TEMPERATURE=20.00
		CORRECTION_FACTOR=1.0000
		EXPECTED_MAX_DOSE_RATE=3.00
		EPOM_DEPTH_SHIFT=0.0
		EPOM_MODE=TRUFIX
		BEGIN_DATA
			-101.00		4.0564E-03		14.266E+00
			-100.00		4.0777E-03		14.266E+00
			-99.00		4.1418E-03		14.266E+00
			-98.00		4.1640E-03		14.263E+00
			-97.00		4.2485E-03		14.266E+00
			-96.00		4.3126E-03		14.266E+00
			-95.00		4.3961E-03		14.272E+00
			-94.00		4.4824E-03		14.269E+00
			-93.00		4.5678E-03		14.269E+00
			-92.00		4.6765E-03		14.263E+00
			-91.00		4.7599E-03		14.269E+00
			-90.00		4.8260E-03		14.263E+00
			-89.00		4.9551E-03		14.260E+00
			-88.00		4.9947E-03		14.269E+00
			-87.00		5.1676E-03		14.263E+00
			-86.00		5.2744E-03		14.263E+00
			-85.00		5.4002E-03		14.269E+00
			-84.00		5.4441E-03		14.266E+00
			-83.00		5.5734E-03		14.263E+00
			-82.00		5.8308E-03		14.260E+00
			-81.00		5.8937E-03		14.263E+00
			-80.00		6.0205E-03		14.266E+00
			-79.00		6.1939E-03		14.260E+00
			-78.00		6.3207E-03		14.263E+00
			-77.00		6.5101E-03		14.269E+00
			-76.00		6.6823E-03		14.266E+00
			-75.00		6.8303E-03		14.269E+00
			-74.00		7.0453E-03		14.266E+00
			-73.00		7.2145E-03		14.269E+00
			-72.00		7.4295E-03		14.266E+00
			-71.00		7.5165E-03		14.263E+00
			-70.00		7.6857E-03		14.266E+00
			-69.00		7.7925E-03		14.266E+00
			-68.00		8.0717E-03		14.263E+00
			-67.00		8.2212E-03		14.263E+00
			-66.00		8.4098E-03		14.269E+00
			-65.00		8.6520E-03		14.257E+00
			-64.00		8.8794E-03		14.269E+00
			-63.00		9.1006E-03		14.257E+00
			-62.00		9.3276E-03		14.269E+00
			-61.00		9.6388E-03		14.251E+00
			-60.00		10.038E-03		14.260E+00
			-59.00		10.278E-03		14.254E+00
			-58.00		10.587E-03		14.269E+00
			-57.00		10.933E-03		14.263E+00
			-56.00		11.294E-03		14.266E+00
			-55.00		11.745E-03		14.263E+00
			-54.00		12.126E-03		14.266E+00
			-53.00		12.636E-03		14.269E+00
			-52.00		13.151E-03		14.266E+00
			-51.00		13.676E-03		14.275E+00
			-50.00		14.350E-03		14.263E+00
			-49.00		15.112E-03		14.269E+00
			-48.00		16.040E-03		14.260E+00
			-47.00		17.367E-03		14.275E+00
			-46.00		19.086E-03		14.266E+00
			-45.00		21.229E-03		14.275E+00
			-44.00		24.034E-03		14.269E+00
			-43.00		27.806E-03		14.272E+00
			-42.00		33.540E-03		14.266E+00
			-41.00		43.436E-03		14.269E+00
			-40.00		62.631E-03		14.263E+00
			-39.00		98.932E-03		14.260E+00
			-38.00		154.61E-03		14.272E+00
			-37.00		227.27E-03		14.272E+00
			-36.00		313.83E-03		14.266E+00
			-35.00		401.28E-03		14.269E+00
			-34.00		476.40E-03		14.263E+00
			-33.00		526.69E-03		14.266E+00
			-32.00		554.35E-03		14.263E+00
			-31.00		568.96E-03		14.266E+00
			-30.00		577.80E-03		14.269E+00
			-29.00		583.81E-03		14.263E+00
			-28.00		587.53E-03		14.266E+00
			-27.00		591.71E-03		14.263E+00
			-26.00		594.36E-03		14.266E+00
			-25.00		597.05E-03		14.263E+00
			-24.00		599.36E-03		14.254E+00
			-23.00		600.98E-03		14.266E+00
			-22.00		602.65E-03		14.272E+00
			-21.00		604.53E-03		14.263E+00
			-20.00		606.58E-03		14.260E+00
			-19.00		607.65E-03		14.260E+00
			-18.00		609.57E-03		14.260E+00
			-17.00		610.12E-03		14.272E+00
			-16.00		611.44E-03		14.266E+00
			-15.00		612.51E-03		14.266E+00
			-14.00		614.14E-03		14.263E+00
			-13.00		614.99E-03		14.263E+00
			-12.00		615.98E-03		14.260E+00
			-11.00		616.30E-03		14.272E+00
			-10.00		617.29E-03		14.269E+00
			-9.00		617.58E-03		14.272E+00
			-8.00		618.57E-03		14.269E+00
			-7.00		618.52E-03		14.275E+00
			-6.00		620.46E-03		14.260E+00
			-5.00		619.77E-03		14.266E+00
			-4.00		620.62E-03		14.266E+00
			-3.00		620.41E-03		14.266E+00
			-2.00		620.46E-03		14.260E+00
			-1.00		620.25E-03		14.260E+00
			0.00		621.10E-03		14.260E+00
			1.00		620.86E-03		14.251E+00
			2.00		620.70E-03		14.269E+00
			3.00		620.86E-03		14.251E+00
			4.00		620.76E-03		14.263E+00
			5.00		620.00E-03		14.251E+00
			6.00		619.82E-03		14.260E+00
			7.00		618.83E-03		14.263E+00
			8.00		618.33E-03		14.260E+00
			9.00		617.55E-03		14.263E+00
			10.00		616.57E-03		14.266E+00
			11.00		616.27E-03		14.263E+00
			12.00		614.65E-03		14.266E+00
			13.00		614.17E-03		14.272E+00
			14.00		613.02E-03		14.269E+00
			15.00		612.20E-03		14.278E+00
			16.00		610.72E-03		14.263E+00
			17.00		609.17E-03		14.284E+00
			18.00		608.50E-03		14.260E+00
			19.00		606.62E-03		14.269E+00
			20.00		604.91E-03		14.269E+00
			21.00		604.35E-03		14.272E+00
			22.00		602.05E-03		14.266E+00
			23.00		600.56E-03		14.266E+00
			24.00		598.85E-03		14.266E+00
			25.00		596.58E-03		14.269E+00
			26.00		594.24E-03		14.269E+00
			27.00		591.16E-03		14.266E+00
			28.00		587.32E-03		14.266E+00
			29.00		583.51E-03		14.260E+00
			30.00		577.41E-03		14.263E+00
			31.00		569.36E-03		14.272E+00
			32.00		554.56E-03		14.263E+00
			33.00		524.45E-03		14.263E+00
			34.00		472.15E-03		14.269E+00
			35.00		402.18E-03		14.260E+00
			36.00		317.46E-03		14.266E+00
			37.00		228.96E-03		14.260E+00
			38.00		148.52E-03		14.263E+00
			39.00		90.284E-03		14.263E+00
			40.00		57.289E-03		14.269E+00
			41.00		40.914E-03		14.263E+00
			42.00		31.817E-03		14.263E+00
			43.00		26.329E-03		14.263E+00
			44.00		22.490E-03		14.260E+00
			45.00		19.838E-03		14.263E+00
			46.00		18.019E-03		14.266E+00
			47.00		16.499E-03		14.269E+00
			48.00		15.393E-03		14.266E+00
			49.00		14.411E-03		14.266E+00
			50.00		13.581E-03		14.263E+00
			51.00		12.892E-03		14.269E+00
			52.00		12.254E-03		14.266E+00
			53.00		11.766E-03		14.263E+00
			54.00		11.320E-03		14.260E+00
			55.00		10.864E-03		14.269E+00
			56.00		10.440E-03		14.266E+00
			57.00		10.062E-03		14.257E+00
			58.00		9.7118E-03		14.269E+00
			59.00		9.3316E-03		14.263E+00
			60.00		9.0540E-03		14.263E+00
			61.00		8.8210E-03		14.260E+00
			62.00		8.5184E-03		14.266E+00
			63.00		8.2710E-03		14.251E+00
			64.00		8.0914E-03		14.266E+00
			65.00		7.8008E-03		14.251E+00
			66.00		7.5822E-03		14.260E+00
			67.00		7.4114E-03		14.260E+00
			68.00		7.2770E-03		14.272E+00
			69.00		7.0468E-03		14.263E+00
			70.00		6.8958E-03		14.266E+00
			71.00		6.7905E-03		14.263E+00
			72.00		6.6197E-03		14.263E+00
			73.00		6.5556E-03		14.263E+00
			74.00		6.4075E-03		14.260E+00
			75.00		6.2553E-03		14.266E+00
			76.00		6.0205E-03		14.266E+00
			77.00		5.8899E-03		14.272E+00
			78.00		5.8058E-03		14.269E+00
			79.00		5.6729E-03		14.281E+00
			80.00		5.6161E-03		14.263E+00
			81.00		5.4406E-03		14.275E+00
			82.00		5.3396E-03		14.260E+00
			83.00		5.2081E-03		14.269E+00
			84.00		5.1463E-03		14.263E+00
			85.00		5.0619E-03		14.260E+00
			86.00		4.9103E-03		14.266E+00
			87.00		4.8463E-03		14.266E+00
			88.00		4.7395E-03		14.266E+00
			89.00		4.6338E-03		14.263E+00
			90.00		4.5687E-03		14.266E+00
			91.00		4.4620E-03		14.266E+00
			92.00		4.3961E-03		14.272E+00
			93.00		4.3348E-03		14.263E+00
			94.00		4.2299E-03		14.257E+00
			95.00		4.1845E-03		14.266E+00
			96.00		4.0999E-03		14.263E+00
			97.00		4.0350E-03		14.266E+00
			98.00		3.9308E-03		14.257E+00
			99.00		3.8864E-03		14.263E+00
			100.00		3.8437E-03		14.263E+00
			101.00		3.7361E-03		14.266E+00
		END_DATA
	END_SCAN  1
	BEGIN_SCAN  2
		TASK_NAME=tba PDD Profiles
		PROGRAM=WaterTankScans
		MEAS_DATE=10-Dec-2023 12:50:34
		LINAC=Ethos1
		MODALITY=X
		ISOCENTER=1000.00
		INPLANE_AXIS=InplaneGT
		CROSSPLANE_AXIS=CrossplAB
		DEPTH_AXIS=Depth
		INPLANE_AXIS_DIR=GUN_TARGET
		CROSSPLANE_AXIS_DIR=LEFT_RIGHT
		DEPTH_AXIS_DIR=UP_DOWN
		ENERGY=6.00
		NOMINAL_DMAX=13.00
		SSD=900.00
		BLOCK=0
		WEDGE_ANGLE=0.00
		FIELD_INPLANE=80.00
		FIELD_CROSSPLANE=80.00
		FIELD_TYPE=RECTANGULAR
		GANTRY=0.00
		GANTRY_UPRIGHT_POSITION=0
		GANTRY_ROTATION=CW
		COLL_ANGLE=0.00
		COLL_OFFSET_INPLANE=0.00
		COLL_OFFSET_CROSSPLANE=0.00
		SCAN_DEVICE=BeamScan
		SCAN_DEVICE_SETUP=BARA_GUN_TARGET
		ELECTROMETER=BeamScan
		RANGE_FIELD=LOW
		RANGE_REFERENCE=LOW
		DETECTOR=THIMBLE_CHAMBER
		DETECTOR_SUBCODE=SEMIFLEX
		DETECTOR_RADIUS=2.40
		DETECTOR_NAME=PTW 31021 Semiflex 3D 668
		DETECTOR_SN=144668
		DETECTOR_CALIBRATION=500000000.00
		DETECTOR_IS_CALIBRATED=1
		DETECTOR_REFERENCE=THIMBLE_CHAMBER
		DETECTOR_REFERENCE_SUBCODE=SEMIFLEX
		DETECTOR_REFERENCE_RADIUS=2.40
		DETECTOR_REFERENCE_NAME=PTW 31021 Semiflex 3D 669
		DETECTOR_REFERENCE_SN=144669
		DETECTOR_REFERENCE_IS_CALIBRATED=0
		DETECTOR_REFERENCE_CALIBRATION=500000000.00
		DETECTOR_HV=400.0
		DETECTOR_REFERENCE_HV=400.0
		DETECTOR_ORIENTATION=HORIZONTAL
		FILTER=FFF
		SCAN_SPEED_PROFILE=2.00
		SCAN_PROF_SPEED_DEP=NONE
		SCAN_SPEED_PDD=2.00
		SCAN_PDD_SPEED_DEP=NONE
		DETECTOR_TYPE=T31021
		REF_FIELD_DEPTH=100.00
		REF_FIELD_DEFINED=ISOCENTER
		REF_FIELD_INPLANE=100.00
		REF_FIELD_CROSSPLANE=100.00
		REF_SCAN_POSITIONS=-120.00;-119.00;-118.00;-117.00;-116.00;-115.00;-114.00;-113.00;-112.00;-111.00;-110.00;-109.00;-108.00;-107.00;-106.00;-105.00;-104.00;-103.00;-102.00;-101.00;-100.00;-99.00;-98.00;-97.00;-96.00;-95.00;-94.00;-93.00;-92.00;-91.00;-90.00;-89.00;-88.00;-87.00;-86.00;-85.00;-84.00;-83.00;-82.00;-81.00;-80.00;-79.00;-78.00;-77.00;-76.00;-75.00;-74.00;-73.00;-72.00;-71.00;-70.00;-69.00;-68.00;-67.00;-66.00;-65.00;-64.00;-63.00;-62.00;-61.00;-60.00;-59.00;-58.00;-57.00;-56.00;-55.00;-54.00;-53.00;-52.00;-51.00;-50.00;-49.00;-48.00;-47.00;-46.00;-45.00;-44.00;-43.00;-42.00;-41.00;-40.00;-39.00;-38.00;-37.00;-36.00;-35.00;-34.00;-33.00;-32.00;-31.00;-30.00;-29.00;-28.00;-27.00;-26.00;-25.00;-24.00;-23.00;-22.00;-21.00;-20.00;-19.00;-18.00;-17.00;-16.00;-15.00;-14.00;-13.00;-12.00;-11.00;-10.00;-9.00;-8.00;-7.00;-6.00;-5.00;-4.00;-3.00;-2.00;-1.00;0.00;1.00;2.00;3.00;4.00;5.00;6.00;7.00;8.00;9.00;10.00;11.00;12.00;13.00;14.00;15.00;16.00;17.00;18.00;19.00;20.00;21.00;22.00;23.00;24.00;25.00;26.00;27.00;28.00;29.00;30.00;31.00;32.00;33.00;34.00;35.00;36.00;37.00;38.00;39.00;40.00;41.00;42.00;43.00;44.00;45.00;46.00;47.00;48.00;49.00;50.00;51.00;52.00;53.00;54.00;55.00;56.00;57.00;58.00;59.00;60.00;61.00;62.00;63.00;64.00;65.00;66.00;67.00;68.00;69.00;70.00;71.00;72.00;73.00;74.00;75.00;76.00;77.00;78.00;79.00;80.00;81.00;82.00;83.00;84.00;85.00;86.00;87.00;88.00;89.00;90.00;91.00;92.00;93.00;94.00;95.00;96.00;97.00;98.00;99.00;100.00;101.00;102.00;103.00;104.00;105.00;106.00;107.00;108.00;109.00;110.00;111.00;112.00;113.00;114.00;115.00;116.00;117.00;118.00;119.00;120.00;
		REF_OVERSCAN_FACTOR=1.00
		SCAN_CURVETYPE=CROSSPLANE_PROFILE
		SCAN_DEPTH=13.00
		SCAN_OFFAXIS_INPLANE=0.00
		SCAN_OFFAXIS_CROSSPLANE=0.00
		SCAN_ANGLE=0.00
		SCAN_DIAGONAL=NOT_DIAGONAL
		SCAN_DIRECTION=POSITIVE
		MEAS_MEDIUM=WATER
		MEAS_PRESET=MEAS_CONTINUOUS_REFERENCE_SCAN
		MEAS_TIME=0.500
		MEAS_UNIT=A.U.
		PRESSURE=1005.65
		TEMPERATURE=22.26
		NORM_TEMPERATURE=20.00
		CORRECTION_FACTOR=1.0000
		EXPECTED_MAX_DOSE_RATE=3.00
		EPOM_DEPTH_SHIFT=0.0
		EPOM_MODE=TRUFIX
		BEGIN_DATA
			-101.00		3.8034E-03		14.255E+00
			-100.00		3.8897E-03		14.252E+00
			-99.00		3.9547E-03		14.249E+00
			-98.00		4.0607E-03		14.252E+00
			-97.00		4.1026E-03		14.255E+00
			-96.00		4.1462E-03		14.252E+00
			-95.00		4.2735E-03		14.255E+00
			-94.00		4.3190E-03		14.246E+00
			-93.00		4.4026E-03		14.252E+00
			-92.00		4.5076E-03		14.258E+00
			-91.00		4.6183E-03		14.246E+00
			-90.00		4.6795E-03		14.255E+00
			-89.00		4.7446E-03		14.252E+00
			-88.00		4.8504E-03		14.255E+00
			-87.00		4.9562E-03		14.258E+00
			-86.00		5.0032E-03		14.246E+00
			-85.00		5.1496E-03		14.255E+00
			-84.00		5.2598E-03		14.246E+00
			-83.00		5.3419E-03		14.255E+00
			-82.00		5.4950E-03		14.246E+00
			-81.00		5.6410E-03		14.255E+00
			-80.00		5.7277E-03		14.252E+00
			-79.00		5.8786E-03		14.249E+00
			-78.00		5.9427E-03		14.249E+00
			-77.00		6.1150E-03		14.246E+00
			-76.00		6.2206E-03		14.249E+00
			-75.00		6.3502E-03		14.246E+00
			-74.00		6.4544E-03		14.252E+00
			-73.00		6.6282E-03		14.246E+00
			-72.00		6.7521E-03		14.255E+00
			-71.00		6.9017E-03		14.255E+00
			-70.00		7.1184E-03		14.249E+00
			-69.00		7.2039E-03		14.249E+00
			-68.00		7.4407E-03		14.246E+00
			-67.00		7.6101E-03		14.249E+00
			-66.00		7.8041E-03		14.246E+00
			-65.00		8.0393E-03		14.246E+00
			-64.00		8.2692E-03		14.255E+00
			-63.00		8.4883E-03		14.246E+00
			-62.00		8.7839E-03		14.252E+00
			-61.00		9.0267E-03		14.240E+00
			-60.00		9.3630E-03		14.249E+00
			-59.00		9.6471E-03		14.240E+00
			-58.00		10.026E-03		14.249E+00
			-57.00		10.434E-03		14.246E+00
			-56.00		10.707E-03		14.252E+00
			-55.00		11.166E-03		14.240E+00
			-54.00		11.691E-03		14.252E+00
			-53.00		12.123E-03		14.246E+00
			-52.00		12.719E-03		14.249E+00
			-51.00		13.358E-03		14.252E+00
			-50.00		14.100E-03		14.258E+00
			-49.00		15.000E-03		14.255E+00
			-48.00		16.029E-03		14.252E+00
			-47.00		17.318E-03		14.264E+00
			-46.00		19.060E-03		14.255E+00
			-45.00		21.188E-03		14.261E+00
			-44.00		24.114E-03		14.261E+00
			-43.00		28.620E-03		14.261E+00
			-42.00		35.392E-03		14.252E+00
			-41.00		46.956E-03		14.258E+00
			-40.00		69.338E-03		14.255E+00
			-39.00		110.83E-03		14.255E+00
			-38.00		174.23E-03		14.252E+00
			-37.00		254.81E-03		14.261E+00
			-36.00		342.66E-03		14.258E+00
			-35.00		424.57E-03		14.255E+00
			-34.00		488.99E-03		14.252E+00
			-33.00		532.05E-03		14.255E+00
			-32.00		556.53E-03		14.252E+00
			-31.00		570.09E-03		14.255E+00
			-30.00		578.33E-03		14.252E+00
			-29.00		583.58E-03		14.249E+00
			-28.00		587.95E-03		14.252E+00
			-27.00		590.90E-03		14.258E+00
			-26.00		593.93E-03		14.252E+00
			-25.00		596.71E-03		14.252E+00
			-24.00		598.80E-03		14.258E+00
			-23.00		601.11E-03		14.249E+00
			-22.00		602.56E-03		14.255E+00
			-21.00		604.49E-03		14.255E+00
			-20.00		606.46E-03		14.249E+00
			-19.00		607.82E-03		14.252E+00
			-18.00		608.68E-03		14.252E+00
			-17.00		610.30E-03		14.249E+00
			-16.00		611.19E-03		14.258E+00
			-15.00		612.52E-03		14.252E+00
			-14.00		613.89E-03		14.255E+00
			-13.00		614.87E-03		14.252E+00
			-12.00		615.86E-03		14.249E+00
			-11.00		616.58E-03		14.252E+00
			-10.00		617.09E-03		14.255E+00
			-9.00		618.00E-03		14.249E+00
			-8.00		618.67E-03		14.258E+00
			-7.00		619.10E-03		14.258E+00
			-6.00		619.87E-03		14.255E+00
			-5.00		620.35E-03		14.249E+00
			-4.00		620.68E-03		14.261E+00
			-3.00		620.94E-03		14.255E+00
			-2.00		621.29E-03		14.252E+00
			-1.00		621.90E-03		14.243E+00
			0.00		620.81E-03		14.258E+00
			1.00		621.69E-03		14.243E+00
			2.00		621.02E-03		14.258E+00
			3.00		621.31E-03		14.237E+00
			4.00		620.03E-03		14.261E+00
			5.00		620.27E-03		14.246E+00
			6.00		619.66E-03		14.255E+00
			7.00		619.63E-03		14.246E+00
			8.00		619.31E-03		14.258E+00
			9.00		618.08E-03		14.252E+00
			10.00		617.65E-03		14.252E+00
			11.00		616.88E-03		14.255E+00
			12.00		615.38E-03		14.255E+00
			13.00		614.61E-03		14.258E+00
			14.00		613.68E-03		14.255E+00
			15.00		612.82E-03		14.255E+00
			16.00		612.01E-03		14.249E+00
			17.00		609.74E-03		14.267E+00
			18.00		608.84E-03		14.258E+00
			19.00		607.34E-03		14.273E+00
			20.00		605.64E-03		14.258E+00
			21.00		604.44E-03		14.261E+00
			22.00		603.04E-03		14.249E+00
			23.00		600.51E-03		14.258E+00
			24.00		598.63E-03		14.252E+00
			25.00		596.15E-03		14.255E+00
			26.00		594.14E-03		14.252E+00
			27.00		590.85E-03		14.249E+00
			28.00		586.88E-03		14.252E+00
			29.00		582.05E-03		14.255E+00
			30.00		575.85E-03		14.255E+00
			31.00		565.63E-03		14.249E+00
			32.00		547.77E-03		14.252E+00
			33.00		516.89E-03		14.249E+00
			34.00		466.24E-03		14.255E+00
			35.00		394.57E-03		14.258E+00
			36.00		309.83E-03		14.255E+00
			37.00		223.41E-03		14.261E+00
			38.00		149.10E-03		14.255E+00
			39.00		93.484E-03		14.258E+00
			40.00		59.479E-03		14.252E+00
			41.00		42.027E-03		14.249E+00
			42.00		32.707E-03		14.258E+00
			43.00		27.051E-03		14.255E+00
			44.00		23.317E-03		14.252E+00
			45.00		20.684E-03		14.255E+00
			46.00		18.650E-03		14.258E+00
			47.00		17.179E-03		14.255E+00
			48.00		15.940E-03		14.255E+00
			49.00		14.915E-03		14.255E+00
			50.00		14.103E-03		14.255E+00
			51.00		13.330E-03		14.258E+00
			52.00		12.778E-03		14.255E+00
			53.00		12.246E-03		14.252E+00
			54.00		11.669E-03		14.252E+00
			55.00		11.258E-03		14.258E+00
			56.00		10.705E-03		14.255E+00
			57.00		10.451E-03		14.252E+00
			58.00		10.028E-03		14.246E+00
			59.00		9.6795E-03		14.255E+00
			60.00		9.3550E-03		14.261E+00
			61.00		9.1026E-03		14.255E+00
			62.00		8.7607E-03		14.255E+00
			63.00		8.4847E-03		14.252E+00
			64.00		8.2906E-03		14.255E+00
			65.00		8.0376E-03		14.249E+00
			66.00		7.8239E-03		14.249E+00
			67.00		7.6545E-03		14.246E+00
			68.00		7.4786E-03		14.255E+00
			69.00		7.2712E-03		14.243E+00
			70.00		7.1123E-03		14.261E+00
			71.00		6.9231E-03		14.255E+00
			72.00		6.7949E-03		14.255E+00
			73.00		6.6681E-03		14.252E+00
			74.00		6.4957E-03		14.255E+00
			75.00		6.3662E-03		14.258E+00
			76.00		6.2406E-03		14.252E+00
			77.00		6.1085E-03		14.261E+00
			78.00		5.9829E-03		14.255E+00
			79.00		5.8736E-03		14.261E+00
			80.00		5.7466E-03		14.258E+00
			81.00		5.6576E-03		14.267E+00
			82.00		5.5128E-03		14.255E+00
			83.00		5.3800E-03		14.267E+00
			84.00		5.2778E-03		14.255E+00
			85.00		5.1709E-03		14.255E+00
			86.00		5.0438E-03		14.252E+00
			87.00		5.0182E-03		14.264E+00
			88.00		4.8728E-03		14.252E+00
			89.00		4.7629E-03		14.261E+00
			90.00		4.6795E-03		14.255E+00
			91.00		4.6154E-03		14.255E+00
			92.00		4.4872E-03		14.255E+00
			93.00		4.4026E-03		14.252E+00
			94.00		4.3172E-03		14.252E+00
			95.00		4.2103E-03		14.252E+00
			96.00		4.1898E-03		14.249E+00
			97.00		4.1676E-03		14.252E+00
			98.00		4.0590E-03		14.258E+00
			99.00		3.9752E-03		14.252E+00
			100.00		3.9103E-03		14.255E+00
			101.00		3.8453E-03		14.258E+00
		END_DATA
	END_SCAN  2
	BEGIN_SCAN  3
		TASK_NAME=tba PDD Profiles
		PROGRAM=WaterTankScans
		MEAS_DATE=10-Dec-2023 12:54:53
		LINAC=Ethos1
		MODALITY=X
		ISOCENTER=1000.00
		INPLANE_AXIS=InplaneGT
		CROSSPLANE_AXIS=CrossplAB
		DEPTH_AXIS=Depth
		INPLANE_AXIS_DIR=GUN_TARGET
		CROSSPLANE_AXIS_DIR=LEFT_RIGHT
		DEPTH_AXIS_DIR=UP_DOWN
		ENERGY=6.00
		NOMINAL_DMAX=13.00
		SSD=900.00
		BLOCK=0
		WEDGE_ANGLE=0.00
		FIELD_INPLANE=80.00
		FIELD_CROSSPLANE=80.00
		FIELD_TYPE=RECTANGULAR
		GANTRY=0.00
		GANTRY_UPRIGHT_POSITION=0
		GANTRY_ROTATION=CW
		COLL_ANGLE=0.00
		COLL_OFFSET_INPLANE=0.00
		COLL_OFFSET_CROSSPLANE=0.00
		SCAN_DEVICE=BeamScan
		SCAN_DEVICE_SETUP=BARA_GUN_TARGET
		ELECTROMETER=BeamScan
		RANGE_FIELD=LOW
		RANGE_REFERENCE=LOW
		DETECTOR=THIMBLE_CHAMBER
		DETECTOR_SUBCODE=SEMIFLEX
		DETECTOR_RADIUS=2.40
		DETECTOR_NAME=PTW 31021 Semiflex 3D 668
		DETECTOR_SN=144668
		DETECTOR_CALIBRATION=500000000.00
		DETECTOR_IS_CALIBRATED=1
		DETECTOR_REFERENCE=THIMBLE_CHAMBER
		DETECTOR_REFERENCE_SUBCODE=SEMIFLEX
		DETECTOR_REFERENCE_RADIUS=2.40
		DETECTOR_REFERENCE_NAME=PTW 31021 Semiflex 3D 669
		DETECTOR_REFERENCE_SN=144669
		DETECTOR_REFERENCE_IS_CALIBRATED=0
		DETECTOR_REFERENCE_CALIBRATION=500000000.00
		DETECTOR_HV=400.0
		DETECTOR_REFERENCE_HV=400.0
		DETECTOR_ORIENTATION=HORIZONTAL
		FILTER=FFF
		SCAN_SPEED_PROFILE=2.00
		SCAN_PROF_SPEED_DEP=NONE
		SCAN_SPEED_PDD=2.00
		SCAN_PDD_SPEED_DEP=NONE
		DETECTOR_TYPE=T31021
		REF_FIELD_DEPTH=100.00
		REF_FIELD_DEFINED=ISOCENTER
		REF_FIELD_INPLANE=100.00
		REF_FIELD_CROSSPLANE=100.00
		REF_SCAN_POSITIONS=-120.00;-119.00;-118.00;-117.00;-116.00;-115.00;-114.00;-113.00;-112.00;-111.00;-110.00;-109.00;-108.00;-107.00;-106.00;-105.00;-104.00;-103.00;-102.00;-101.00;-100.00;-99.00;-98.00;-97.00;-96.00;-95.00;-94.00;-93.00;-92.00;-91.00;-90.00;-89.00;-88.00;-87.00;-86.00;-85.00;-84.00;-83.00;-82.00;-81.00;-80.00;-79.00;-78.00;-77.00;-76.00;-75.00;-74.00;-73.00;-72.00;-71.00;-70.00;-69.00;-68.00;-67.00;-66.00;-65.00;-64.00;-63.00;-62.00;-61.00;-60.00;-59.00;-58.00;-57.00;-56.00;-55.00;-54.00;-53.00;-52.00;-51.00;-50.00;-49.00;-48.00;-47.00;-46.00;-45.00;-44.00;-43.00;-42.00;-41.00;-40.00;-39.00;-38.00;-37.00;-36.00;-35.00;-34.00;-33.00;-32.00;-31.00;-30.00;-29.00;-28.00;-27.00;-26.00;-25.00;-24.00;-23.00;-22.00;-21.00;-20.00;-19.00;-18.00;-17.00;-16.00;-15.00;-14.00;-13.00;-12.00;-11.00;-10.00;-9.00;-8.00;-7.00;-6.00;-5.00;-4.00;-3.00;-2.00;-1.00;0.00;1.00;2.00;3.00;4.00;5.00;6.00;7.00;8.00;9.00;10.00;11.00;12.00;13.00;14.00;15.00;16.00;17.00;18.00;19.00;20.00;21.00;22.00;23.00;24.00;25.00;26.00;27.00;28.00;29.00;30.00;31.00;32.00;33.00;34.00;35.00;36.00;37.00;38.00;39.00;40.00;41.00;42.00;43.00;44.00;45.00;46.00;47.00;48.00;49.00;50.00;51.00;52.00;53.00;54.00;55.00;56.00;57.00;58.00;59.00;60.00;61.00;62.00;63.00;64.00;65.00;66.00;67.00;68.00;69.00;70.00;71.00;72.00;73.00;74.00;75.00;76.00;77.00;78.00;79.00;80.00;81.00;82.00;83.00;84.00;85.00;86.00;87.00;88.00;89.00;90.00;91.00;92.00;93.00;94.00;95.00;96.00;97.00;98.00;99.00;100.00;101.00;102.00;103.00;104.00;105.00;106.00;107.00;108.00;109.00;110.00;111.00;112.00;113.00;114.00;115.00;116.00;117.00;118.00;119.00;120.00;
		REF_OVERSCAN_FACTOR=1.00
		SCAN_CURVETYPE=INPLANE_PROFILE
		SCAN_DEPTH=50.00
		SCAN_OFFAXIS_INPLANE=0.00
		SCAN_OFFAXIS_CROSSPLANE=0.00
		SCAN_ANGLE=0.00
		SCAN_DIAGONAL=NOT_DIAGONAL
		SCAN_DIRECTION=POSITIVE
		MEAS_MEDIUM=WATER
		MEAS_PRESET=MEAS_CONTINUOUS_REFERENCE_SCAN
		MEAS_TIME=0.500
		MEAS_UNIT=A.U.
		PRESSURE=1005.54
		TEMPERATURE=22.26
		NORM_TEMPERATURE=20.00
		CORRECTION_FACTOR=1.0000
		EXPECTED_MAX_DOSE_RATE=3.00
		EPOM_DEPTH_SHIFT=0.0
		EPOM_MODE=TRUFIX
		BEGIN_DATA
			-105.00		4.4862E-03		14.260E+00
			-104.00		4.5756E-03		14.248E+00
			-103.00		4.6631E-03		14.242E+00
			-102.00		4.7639E-03		14.260E+00
			-101.00		4.8353E-03		14.238E+00
			-100.00		4.9156E-03		14.254E+00
			-99.00		5.0460E-03		14.248E+00
			-98.00		5.1090E-03		14.251E+00
			-97.00		5.2362E-03		14.254E+00
			-96.00		5.3205E-03		14.257E+00
			-95.00		5.4499E-03		14.254E+00
			-94.00		5.5567E-03		14.254E+00
			-93.00		5.7503E-03		14.251E+00
			-92.00		5.8773E-03		14.254E+00
			-91.00		5.9603E-03		14.260E+00
			-90.00		6.1338E-03		14.254E+00
			-89.00		6.2794E-03		14.263E+00
			-88.00		6.4757E-03		14.254E+00
			-87.00		6.6197E-03		14.266E+00
			-86.00		6.7507E-03		14.260E+00
			-85.00		6.8943E-03		14.272E+00
			-84.00		7.1596E-03		14.254E+00
			-83.00		7.3259E-03		14.263E+00
			-82.00		7.5855E-03		14.257E+00
			-81.00		7.7514E-03		14.266E+00
			-80.00		7.9932E-03		14.254E+00
			-79.00		8.1803E-03		14.263E+00
			-78.00		8.4206E-03		14.254E+00
			-77.00		8.6557E-03		14.254E+00
			-76.00		8.9957E-03		14.257E+00
			-75.00		9.2074E-03		14.260E+00
			-74.00		9.4658E-03		14.257E+00
			-73.00		9.7884E-03		14.254E+00
			-72.00		10.064E-03		14.257E+00
			-71.00		10.363E-03		14.257E+00
			-70.00		10.641E-03		14.257E+00
			-69.00		11.002E-03		14.260E+00
			-68.00		11.349E-03		14.254E+00
			-67.00		11.736E-03		14.251E+00
			-66.00		12.073E-03		14.257E+00
			-65.00		12.521E-03		14.257E+00
			-64.00		12.930E-03		14.254E+00
			-63.00		13.400E-03		14.254E+00
			-62.00		13.910E-03		14.257E+00
			-61.00		14.402E-03		14.257E+00
			-60.00		14.951E-03		14.263E+00
			-59.00		15.584E-03		14.251E+00
			-58.00		16.246E-03		14.251E+00
			-57.00		16.980E-03		14.263E+00
			-56.00		17.692E-03		14.257E+00
			-55.00		18.450E-03		14.266E+00
			-54.00		19.274E-03		14.257E+00
			-53.00		20.261E-03		14.254E+00
			-52.00		21.239E-03		14.257E+00
			-51.00		22.486E-03		14.266E+00
			-50.00		23.649E-03		14.260E+00
			-49.00		25.315E-03		14.260E+00
			-48.00		27.195E-03		14.260E+00
			-47.00		29.581E-03		14.263E+00
			-46.00		32.215E-03		14.260E+00
			-45.00		35.662E-03		14.257E+00
			-44.00		40.188E-03		14.266E+00
			-43.00		47.019E-03		14.254E+00
			-42.00		58.889E-03		14.257E+00
			-41.00		80.864E-03		14.248E+00
			-40.00		116.50E-03		14.269E+00
			-39.00		165.01E-03		14.242E+00
			-38.00		224.41E-03		14.254E+00
			-37.00		288.71E-03		14.245E+00
			-36.00		350.58E-03		14.251E+00
			-35.00		399.10E-03		14.251E+00
			-34.00		431.81E-03		14.251E+00
			-33.00		449.96E-03		14.245E+00
			-32.00		460.35E-03		14.254E+00
			-31.00		467.41E-03		14.254E+00
			-30.00		472.44E-03		14.257E+00
			-29.00		476.70E-03		14.251E+00
			-28.00		479.80E-03		14.254E+00
			-27.00		482.60E-03		14.266E+00
			-26.00		485.79E-03		14.254E+00
			-25.00		487.83E-03		14.263E+00
			-24.00		489.74E-03		14.257E+00
			-23.00		491.67E-03		14.269E+00
			-22.00		494.02E-03		14.257E+00
			-21.00		495.41E-03		14.272E+00
			-20.00		497.22E-03		14.251E+00
			-19.00		498.19E-03		14.272E+00
			-18.00		500.00E-03		14.251E+00
			-17.00		501.39E-03		14.254E+00
			-16.00		502.57E-03		14.251E+00
			-15.00		503.42E-03		14.263E+00
			-14.00		504.81E-03		14.254E+00
			-13.00		505.98E-03		14.257E+00
			-12.00		506.52E-03		14.260E+00
			-11.00		507.58E-03		14.260E+00
			-10.00		508.22E-03		14.260E+00
			-9.00		508.55E-03		14.257E+00
			-8.00		509.73E-03		14.248E+00
			-7.00		509.93E-03		14.260E+00
			-6.00		510.36E-03		14.260E+00
			-5.00		510.68E-03		14.257E+00
			-4.00		511.11E-03		14.257E+00
			-3.00		511.00E-03		14.260E+00
			-2.00		511.22E-03		14.254E+00
			-1.00		511.11E-03		14.257E+00
			0.00		511.86E-03		14.254E+00
			1.00		511.54E-03		14.257E+00
			2.00		511.54E-03		14.257E+00
			3.00		511.00E-03		14.260E+00
			4.00		510.90E-03		14.257E+00
			5.00		510.68E-03		14.257E+00
			6.00		509.72E-03		14.260E+00
			7.00		509.29E-03		14.260E+00
			8.00		508.87E-03		14.254E+00
			9.00		508.44E-03		14.254E+00
			10.00		507.70E-03		14.251E+00
			11.00		506.62E-03		14.263E+00
			12.00		505.56E-03		14.257E+00
			13.00		505.24E-03		14.254E+00
			14.00		503.95E-03		14.260E+00
			15.00		502.88E-03		14.260E+00
			16.00		501.92E-03		14.251E+00
			17.00		500.43E-03		14.263E+00
			18.00		499.47E-03		14.254E+00
			19.00		497.43E-03		14.251E+00
			20.00		496.37E-03		14.257E+00
			21.00		494.98E-03		14.254E+00
			22.00		493.06E-03		14.260E+00
			23.00		491.34E-03		14.248E+00
			24.00		489.53E-03		14.257E+00
			25.00		487.80E-03		14.238E+00
			26.00		485.04E-03		14.257E+00
			27.00		482.57E-03		14.242E+00
			28.00		480.03E-03		14.260E+00
			29.00		476.59E-03		14.248E+00
			30.00		472.65E-03		14.257E+00
			31.00		467.61E-03		14.248E+00
			32.00		461.32E-03		14.257E+00
			33.00		450.76E-03		14.260E+00
			34.00		432.66E-03		14.251E+00
			35.00		400.38E-03		14.251E+00
			36.00		352.63E-03		14.263E+00
			37.00		294.81E-03		14.260E+00
			38.00		229.11E-03		14.254E+00
			39.00		165.16E-03		14.269E+00
			40.00		111.96E-03		14.260E+00
			41.00		76.862E-03		14.272E+00
			42.00		57.051E-03		14.257E+00
			43.00		46.499E-03		14.269E+00
			44.00		39.795E-03		14.254E+00
			45.00		35.199E-03		14.263E+00
			46.00		31.660E-03		14.260E+00
			47.00		29.176E-03		14.263E+00
			48.00		26.816E-03		14.257E+00
			49.00		25.117E-03		14.263E+00
			50.00		23.611E-03		14.257E+00
			51.00		22.149E-03		14.263E+00
			52.00		21.073E-03		14.254E+00
			53.00		19.923E-03		14.251E+00
			54.00		18.957E-03		14.254E+00
			55.00		18.077E-03		14.257E+00
			56.00		17.311E-03		14.254E+00
			57.00		16.581E-03		14.257E+00
			58.00		15.837E-03		14.254E+00
			59.00		15.214E-03		14.257E+00
			60.00		14.570E-03		14.260E+00
			61.00		13.980E-03		14.251E+00
			62.00		13.507E-03		14.254E+00
			63.00		13.040E-03		14.251E+00
			64.00		12.460E-03		14.254E+00
			65.00		12.097E-03		14.254E+00
			66.00		11.707E-03		14.260E+00
			67.00		11.308E-03		14.251E+00
			68.00		10.919E-03		14.257E+00
			69.00		10.579E-03		14.254E+00
			70.00		10.233E-03		14.260E+00
			71.00		9.9765E-03		14.260E+00
			72.00		9.6795E-03		14.257E+00
			73.00		9.3823E-03		14.254E+00
			74.00		9.1045E-03		14.254E+00
			75.00		8.9122E-03		14.254E+00
			76.00		8.6130E-03		14.254E+00
			77.00		8.4188E-03		14.257E+00
			78.00		8.1624E-03		14.257E+00
			79.00		7.8812E-03		14.263E+00
			80.00		7.7991E-03		14.257E+00
			81.00		7.5838E-03		14.260E+00
			82.00		7.3520E-03		14.254E+00
			83.00		7.1810E-03		14.254E+00
			84.00		7.0314E-03		14.254E+00
			85.00		6.8391E-03		14.254E+00
			86.00		6.7094E-03		14.257E+00
			87.00		6.5654E-03		14.245E+00
			88.00		6.3475E-03		14.254E+00
			89.00		6.2687E-03		14.238E+00
			90.00		6.0697E-03		14.254E+00
			91.00		5.9037E-03		14.242E+00
			92.00		5.8346E-03		14.254E+00
			93.00		5.7088E-03		14.248E+00
			94.00		5.5354E-03		14.254E+00
			95.00		5.4487E-03		14.257E+00
			96.00		5.3442E-03		14.251E+00
			97.00		5.2575E-03		14.254E+00
			98.00		5.1507E-03		14.254E+00
			99.00		5.0182E-03		14.266E+00
			100.00		4.9765E-03		14.263E+00
			101.00		4.8473E-03		14.266E+00
			102.00		4.7202E-03		14.263E+00
			103.00		4.6531E-03		14.272E+00
			104.00		4.5503E-03		14.260E+00
			105.00		4.5037E-03		14.272E+00
		END_DATA
	END_SCAN  3
	BEGIN_SCAN  4
		TASK_NAME=tba PDD Profiles
		PROGRAM=WaterTankScans
		MEAS_DATE=10-Dec-2023 12:56:51
		LINAC=Ethos1
		MODALITY=X
		ISOCENTER=1000.00
		INPLANE_AXIS=InplaneGT
		CROSSPLANE_AXIS=CrossplAB
		DEPTH_AXIS=Depth
		INPLANE_AXIS_DIR=GUN_TARGET
		CROSSPLANE_AXIS_DIR=LEFT_RIGHT
		DEPTH_AXIS_DIR=UP_DOWN
		ENERGY=6.00
		NOMINAL_DMAX=13.00
		SSD=900.00
		BLOCK=0
		WEDGE_ANGLE=0.00
		FIELD_INPLANE=80.00
		FIELD_CROSSPLANE=80.00
		FIELD_TYPE=RECTANGULAR
		GANTRY=0.00
		GANTRY_UPRIGHT_POSITION=0
		GANTRY_ROTATION=CW
		COLL_ANGLE=0.00
		COLL_OFFSET_INPLANE=0.00
		COLL_OFFSET_CROSSPLANE=0.00
		SCAN_DEVICE=BeamScan
		SCAN_DEVICE_SETUP=BARA_GUN_TARGET
		ELECTROMETER=BeamScan
		RANGE_FIELD=LOW
		RANGE_REFERENCE=LOW
		DETECTOR=THIMBLE_CHAMBER
		DETECTOR_SUBCODE=SEMIFLEX
		DETECTOR_RADIUS=2.40
		DETECTOR_NAME=PTW 31021 Semiflex 3D 668
		DETECTOR_SN=144668
		DETECTOR_CALIBRATION=500000000.00
		DETECTOR_IS_CALIBRATED=1
		DETECTOR_REFERENCE=THIMBLE_CHAMBER
		DETECTOR_REFERENCE_SUBCODE=SEMIFLEX
		DETECTOR_REFERENCE_RADIUS=2.40
		DETECTOR_REFERENCE_NAME=PTW 31021 Semiflex 3D 669
		DETECTOR_REFERENCE_SN=144669
		DETECTOR_REFERENCE_IS_CALIBRATED=0
		DETECTOR_REFERENCE_CALIBRATION=500000000.00
		DETECTOR_HV=400.0
		DETECTOR_REFERENCE_HV=400.0
		DETECTOR_ORIENTATION=HORIZONTAL
		FILTER=FFF
		SCAN_SPEED_PROFILE=2.00
		SCAN_PROF_SPEED_DEP=NONE
		SCAN_SPEED_PDD=2.00
		SCAN_PDD_SPEED_DEP=NONE
		DETECTOR_TYPE=T31021
		REF_FIELD_DEPTH=100.00
		REF_FIELD_DEFINED=ISOCENTER
		REF_FIELD_INPLANE=100.00
		REF_FIELD_CROSSPLANE=100.00
		REF_SCAN_POSITIONS=-120.00;-119.00;-118.00;-117.00;-116.00;-115.00;-114.00;-113.00;-112.00;-111.00;-110.00;-109.00;-108.00;-107.00;-106.00;-105.00;-104.00;-103.00;-102.00;-101.00;-100.00;-99.00;-98.00;-97.00;-96.00;-95.00;-94.00;-93.00;-92.00;-91.00;-90.00;-89.00;-88.00;-87.00;-86.00;-85.00;-84.00;-83.00;-82.00;-81.00;-80.00;-79.00;-78.00;-77.00;-76.00;-75.00;-74.00;-73.00;-72.00;-71.00;-70.00;-69.00;-68.00;-67.00;-66.00;-65.00;-64.00;-63.00;-62.00;-61.00;-60.00;-59.00;-58.00;-57.00;-56.00;-55.00;-54.00;-53.00;-52.00;-51.00;-50.00;-49.00;-48.00;-47.00;-46.00;-45.00;-44.00;-43.00;-42.00;-41.00;-40.00;-39.00;-38.00;-37.00;-36.00;-35.00;-34.00;-33.00;-32.00;-31.00;-30.00;-29.00;-28.00;-27.00;-26.00;-25.00;-24.00;-23.00;-22.00;-21.00;-20.00;-19.00;-18.00;-17.00;-16.00;-15.00;-14.00;-13.00;-12.00;-11.00;-10.00;-9.00;-8.00;-7.00;-6.00;-5.00;-4.00;-3.00;-2.00;-1.00;0.00;1.00;2.00;3.00;4.00;5.00;6.00;7.00;8.00;9.00;10.00;11.00;12.00;13.00;14.00;15.00;16.00;17.00;18.00;19.00;20.00;21.00;22.00;23.00;24.00;25.00;26.00;27.00;28.00;29.00;30.00;31.00;32.00;33.00;34.00;35.00;36.00;37.00;38.00;39.00;40.00;41.00;42.00;43.00;44.00;45.00;46.00;47.00;48.00;49.00;50.00;51.00;52.00;53.00;54.00;55.00;56.00;57.00;58.00;59.00;60.00;61.00;62.00;63.00;64.00;65.00;66.00;67.00;68.00;69.00;70.00;71.00;72.00;73.00;74.00;75.00;76.00;77.00;78.00;79.00;80.00;81.00;82.00;83.00;84.00;85.00;86.00;87.00;88.00;89.00;90.00;91.00;92.00;93.00;94.00;95.00;96.00;97.00;98.00;99.00;100.00;101.00;102.00;103.00;104.00;105.00;106.00;107.00;108.00;109.00;110.00;111.00;112.00;113.00;114.00;115.00;116.00;117.00;118.00;119.00;120.00;
		REF_OVERSCAN_FACTOR=1.00
		SCAN_CURVETYPE=CROSSPLANE_PROFILE
		SCAN_DEPTH=50.00
		SCAN_OFFAXIS_INPLANE=0.00
		SCAN_OFFAXIS_CROSSPLANE=0.00
		SCAN_ANGLE=0.00
		SCAN_DIAGONAL=NOT_DIAGONAL
		SCAN_DIRECTION=POSITIVE
		MEAS_MEDIUM=WATER
		MEAS_PRESET=MEAS_CONTINUOUS_REFERENCE_SCAN
		MEAS_TIME=0.500
		MEAS_UNIT=A.U.
		PRESSURE=1005.55
		TEMPERATURE=22.25
		NORM_TEMPERATURE=20.00
		CORRECTION_FACTOR=1.0000
		EXPECTED_MAX_DOSE_RATE=3.00
		EPOM_DEPTH_SHIFT=0.0
		EPOM_MODE=TRUFIX
		BEGIN_DATA
			-105.00		4.4881E-03		14.253E+00
			-104.00		4.6581E-03		14.256E+00
			-103.00		4.6795E-03		14.256E+00
			-102.00		4.7873E-03		14.253E+00
			-101.00		4.8504E-03		14.256E+00
			-100.00		4.9786E-03		14.256E+00
			-99.00		5.0844E-03		14.259E+00
			-98.00		5.1474E-03		14.262E+00
			-97.00		5.2789E-03		14.253E+00
			-96.00		5.3904E-03		14.241E+00
			-95.00		5.4677E-03		14.262E+00
			-94.00		5.6209E-03		14.253E+00
			-93.00		5.7466E-03		14.259E+00
			-92.00		5.8962E-03		14.259E+00
			-91.00		6.0056E-03		14.253E+00
			-90.00		6.1565E-03		14.250E+00
			-89.00		6.3462E-03		14.256E+00
			-88.00		6.4771E-03		14.250E+00
			-87.00		6.6211E-03		14.262E+00
			-86.00		6.7764E-03		14.250E+00
			-85.00		6.9246E-03		14.253E+00
			-84.00		7.1199E-03		14.247E+00
			-83.00		7.2879E-03		14.253E+00
			-82.00		7.4439E-03		14.241E+00
			-81.00		7.6068E-03		14.256E+00
			-80.00		7.8272E-03		14.244E+00
			-79.00		8.0145E-03		14.253E+00
			-78.00		8.2710E-03		14.253E+00
			-77.00		8.5061E-03		14.253E+00
			-76.00		8.7858E-03		14.250E+00
			-75.00		8.8927E-03		14.250E+00
			-74.00		9.2114E-03		14.253E+00
			-73.00		9.4658E-03		14.256E+00
			-72.00		9.7629E-03		14.259E+00
			-71.00		10.062E-03		14.259E+00
			-70.00		10.337E-03		14.262E+00
			-69.00		10.731E-03		14.250E+00
			-68.00		11.002E-03		14.259E+00
			-67.00		11.477E-03		14.253E+00
			-66.00		11.790E-03		14.262E+00
			-65.00		12.310E-03		14.253E+00
			-64.00		12.711E-03		14.259E+00
			-63.00		13.208E-03		14.253E+00
			-62.00		13.782E-03		14.256E+00
			-61.00		14.240E-03		14.247E+00
			-60.00		14.829E-03		14.256E+00
			-59.00		15.385E-03		14.256E+00
			-58.00		16.083E-03		14.262E+00
			-57.00		16.813E-03		14.259E+00
			-56.00		17.482E-03		14.253E+00
			-55.00		18.397E-03		14.256E+00
			-54.00		19.320E-03		14.253E+00
			-53.00		20.346E-03		14.253E+00
			-52.00		21.436E-03		14.253E+00
			-51.00		22.825E-03		14.253E+00
			-50.00		24.049E-03		14.250E+00
			-49.00		25.625E-03		14.253E+00
			-48.00		27.655E-03		14.253E+00
			-47.00		29.957E-03		14.256E+00
			-46.00		32.899E-03		14.259E+00
			-45.00		36.808E-03		14.259E+00
			-44.00		42.158E-03		14.256E+00
			-43.00		50.278E-03		14.256E+00
			-42.00		64.031E-03		14.253E+00
			-41.00		88.571E-03		14.259E+00
			-40.00		128.05E-03		14.259E+00
			-39.00		182.54E-03		14.256E+00
			-38.00		245.99E-03		14.253E+00
			-37.00		310.26E-03		14.256E+00
			-36.00		366.18E-03		14.250E+00
			-35.00		407.98E-03		14.268E+00
			-34.00		435.56E-03		14.253E+00
			-33.00		451.50E-03		14.256E+00
			-32.00		461.23E-03		14.259E+00
			-31.00		467.72E-03		14.250E+00
			-30.00		472.85E-03		14.250E+00
			-29.00		476.49E-03		14.250E+00
			-28.00		479.60E-03		14.259E+00
			-27.00		482.90E-03		14.250E+00
			-26.00		485.36E-03		14.253E+00
			-25.00		487.71E-03		14.253E+00
			-24.00		489.85E-03		14.253E+00
			-23.00		491.67E-03		14.256E+00
			-22.00		493.69E-03		14.247E+00
			-21.00		495.40E-03		14.253E+00
			-20.00		496.47E-03		14.247E+00
			-19.00		498.29E-03		14.250E+00
			-18.00		499.57E-03		14.238E+00
			-17.00		501.18E-03		14.253E+00
			-16.00		502.25E-03		14.241E+00
			-15.00		503.63E-03		14.250E+00
			-14.00		504.17E-03		14.247E+00
			-13.00		505.45E-03		14.253E+00
			-12.00		505.77E-03		14.256E+00
			-11.00		507.37E-03		14.253E+00
			-10.00		507.91E-03		14.256E+00
			-9.00		508.66E-03		14.253E+00
			-8.00		508.87E-03		14.259E+00
			-7.00		509.19E-03		14.256E+00
			-6.00		510.25E-03		14.262E+00
			-5.00		510.69E-03		14.250E+00
			-4.00		510.79E-03		14.259E+00
			-3.00		510.90E-03		14.256E+00
			-2.00		511.21E-03		14.265E+00
			-1.00		511.32E-03		14.256E+00
			0.00		511.32E-03		14.262E+00
			1.00		511.75E-03		14.256E+00
			2.00		511.65E-03		14.253E+00
			3.00		511.54E-03		14.250E+00
			4.00		511.22E-03		14.253E+00
			5.00		510.90E-03		14.256E+00
			6.00		510.47E-03		14.250E+00
			7.00		510.26E-03		14.250E+00
			8.00		509.62E-03		14.250E+00
			9.00		508.55E-03		14.256E+00
			10.00		508.12E-03		14.256E+00
			11.00		507.05E-03		14.256E+00
			12.00		506.30E-03		14.259E+00
			13.00		505.77E-03		14.256E+00
			14.00		504.49E-03		14.256E+00
			15.00		503.63E-03		14.250E+00
			16.00		502.57E-03		14.250E+00
			17.00		501.18E-03		14.253E+00
			18.00		499.89E-03		14.253E+00
			19.00		498.50E-03		14.250E+00
			20.00		496.48E-03		14.259E+00
			21.00		495.62E-03		14.253E+00
			22.00		493.80E-03		14.250E+00
			23.00		491.66E-03		14.244E+00
			24.00		489.64E-03		14.259E+00
			25.00		487.50E-03		14.253E+00
			26.00		485.25E-03		14.250E+00
			27.00		482.36E-03		14.247E+00
			28.00		478.96E-03		14.259E+00
			29.00		475.64E-03		14.256E+00
			30.00		471.58E-03		14.256E+00
			31.00		466.01E-03		14.250E+00
			32.00		458.22E-03		14.253E+00
			33.00		446.06E-03		14.259E+00
			34.00		426.71E-03		14.256E+00
			35.00		394.83E-03		14.250E+00
			36.00		347.58E-03		14.259E+00
			37.00		288.37E-03		14.250E+00
			38.00		223.81E-03		14.250E+00
			39.00		162.18E-03		14.256E+00
			40.00		113.15E-03		14.250E+00
			41.00		78.697E-03		14.256E+00
			42.00		58.273E-03		14.250E+00
			43.00		47.211E-03		14.253E+00
			44.00		40.269E-03		14.244E+00
			45.00		35.641E-03		14.256E+00
			46.00		32.121E-03		14.244E+00
			47.00		29.524E-03		14.259E+00
			48.00		27.298E-03		14.250E+00
			49.00		25.545E-03		14.250E+00
			50.00		23.926E-03		14.247E+00
			51.00		22.659E-03		14.250E+00
			52.00		21.406E-03		14.259E+00
			53.00		20.338E-03		14.259E+00
			54.00		19.355E-03		14.259E+00
			55.00		18.401E-03		14.253E+00
			56.00		17.592E-03		14.268E+00
			57.00		16.834E-03		14.259E+00
			58.00		16.211E-03		14.262E+00
			59.00		15.473E-03		14.253E+00
			60.00		14.880E-03		14.268E+00
			61.00		14.383E-03		14.253E+00
			62.00		13.773E-03		14.265E+00
			63.00		13.187E-03		14.253E+00
			64.00		12.754E-03		14.259E+00
			65.00		12.289E-03		14.253E+00
			66.00		11.862E-03		14.253E+00
			67.00		11.543E-03		14.250E+00
			68.00		11.087E-03		14.259E+00
			69.00		10.750E-03		14.253E+00
			70.00		10.399E-03		14.265E+00
			71.00		10.085E-03		14.256E+00
			72.00		9.7650E-03		14.256E+00
			73.00		9.5320E-03		14.253E+00
			74.00		9.2541E-03		14.253E+00
			75.00		8.9763E-03		14.253E+00
			76.00		8.8267E-03		14.253E+00
			77.00		8.5684E-03		14.256E+00
			78.00		8.2692E-03		14.256E+00
			79.00		8.1018E-03		14.250E+00
			80.00		7.9060E-03		14.256E+00
			81.00		7.7153E-03		14.253E+00
			82.00		7.4984E-03		14.259E+00
			83.00		7.3291E-03		14.256E+00
			84.00		7.1764E-03		14.262E+00
			85.00		6.9842E-03		14.262E+00
			86.00		6.8376E-03		14.256E+00
			87.00		6.6880E-03		14.256E+00
			88.00		6.4985E-03		14.250E+00
			89.00		6.3221E-03		14.262E+00
			90.00		6.2166E-03		14.259E+00
			91.00		6.0697E-03		14.253E+00
			92.00		5.9389E-03		14.259E+00
			93.00		5.7881E-03		14.262E+00
			94.00		5.7063E-03		14.253E+00
			95.00		5.5567E-03		14.253E+00
			96.00		5.4476E-03		14.259E+00
			97.00		5.3025E-03		14.247E+00
			98.00		5.1912E-03		14.259E+00
			99.00		5.1090E-03		14.250E+00
			100.00		4.9786E-03		14.256E+00
			101.00		4.9327E-03		14.265E+00
			102.00		4.8525E-03		14.250E+00
			103.00		4.7436E-03		14.256E+00
			104.00		4.6387E-03		14.250E+00
			105.00		4.5513E-03		14.256E+00
		END_DATA
	END_SCAN  4
	BEGIN_SCAN  5
		TASK_NAME=tba PDD Profiles
		PROGRAM=WaterTankScans
		MEAS_DATE=10-Dec-2023 12:58:48
		LINAC=Ethos1
		MODALITY=X
		ISOCENTER=1000.00
		INPLANE_AXIS=InplaneGT
		CROSSPLANE_AXIS=CrossplAB
		DEPTH_AXIS=Depth
		INPLANE_AXIS_DIR=GUN_TARGET
		CROSSPLANE_AXIS_DIR=LEFT_RIGHT
		DEPTH_AXIS_DIR=UP_DOWN
		ENERGY=6.00
		NOMINAL_DMAX=13.00
		SSD=900.00
		BLOCK=0
		WEDGE_ANGLE=0.00
		FIELD_INPLANE=80.00
		FIELD_CROSSPLANE=80.00
		FIELD_TYPE=RECTANGULAR
		GANTRY=0.00
		GANTRY_UPRIGHT_POSITION=0
		GANTRY_ROTATION=CW
		COLL_ANGLE=0.00
		COLL_OFFSET_INPLANE=0.00
		COLL_OFFSET_CROSSPLANE=0.00
		SCAN_DEVICE=BeamScan
		SCAN_DEVICE_SETUP=BARA_GUN_TARGET
		ELECTROMETER=BeamScan
		RANGE_FIELD=LOW
		RANGE_REFERENCE=LOW
		DETECTOR=THIMBLE_CHAMBER
		DETECTOR_SUBCODE=SEMIFLEX
		DETECTOR_RADIUS=2.40
		DETECTOR_NAME=PTW 31021 Semiflex 3D 668
		DETECTOR_SN=144668
		DETECTOR_CALIBRATION=500000000.00
		DETECTOR_IS_CALIBRATED=1
		DETECTOR_REFERENCE=THIMBLE_CHAMBER
		DETECTOR_REFERENCE_SUBCODE=SEMIFLEX
		DETECTOR_REFERENCE_RADIUS=2.40
		DETECTOR_REFERENCE_NAME=PTW 31021 Semiflex 3D 669
		DETECTOR_REFERENCE_SN=144669
		DETECTOR_REFERENCE_IS_CALIBRATED=0
		DETECTOR_REFERENCE_CALIBRATION=500000000.00
		DETECTOR_HV=400.0
		DETECTOR_REFERENCE_HV=400.0
		DETECTOR_ORIENTATION=HORIZONTAL
		FILTER=FFF
		SCAN_SPEED_PROFILE=2.00
		SCAN_PROF_SPEED_DEP=NONE
		SCAN_SPEED_PDD=2.00
		SCAN_PDD_SPEED_DEP=NONE
		DETECTOR_TYPE=T31021
		REF_FIELD_DEPTH=100.00
		REF_FIELD_DEFINED=ISOCENTER
		REF_FIELD_INPLANE=100.00
		REF_FIELD_CROSSPLANE=100.00
		REF_SCAN_POSITIONS=-120.00;-119.00;-118.00;-117.00;-116.00;-115.00;-114.00;-113.00;-112.00;-111.00;-110.00;-109.00;-108.00;-107.00;-106.00;-105.00;-104.00;-103.00;-102.00;-101.00;-100.00;-99.00;-98.00;-97.00;-96.00;-95.00;-94.00;-93.00;-92.00;-91.00;-90.00;-89.00;-88.00;-87.00;-86.00;-85.00;-84.00;-83.00;-82.00;-81.00;-80.00;-79.00;-78.00;-77.00;-76.00;-75.00;-74.00;-73.00;-72.00;-71.00;-70.00;-69.00;-68.00;-67.00;-66.00;-65.00;-64.00;-63.00;-62.00;-61.00;-60.00;-59.00;-58.00;-57.00;-56.00;-55.00;-54.00;-53.00;-52.00;-51.00;-50.00;-49.00;-48.00;-47.00;-46.00;-45.00;-44.00;-43.00;-42.00;-41.00;-40.00;-39.00;-38.00;-37.00;-36.00;-35.00;-34.00;-33.00;-32.00;-31.00;-30.00;-29.00;-28.00;-27.00;-26.00;-25.00;-24.00;-23.00;-22.00;-21.00;-20.00;-19.00;-18.00;-17.00;-16.00;-15.00;-14.00;-13.00;-12.00;-11.00;-10.00;-9.00;-8.00;-7.00;-6.00;-5.00;-4.00;-3.00;-2.00;-1.00;0.00;1.00;2.00;3.00;4.00;5.00;6.00;7.00;8.00;9.00;10.00;11.00;12.00;13.00;14.00;15.00;16.00;17.00;18.00;19.00;20.00;21.00;22.00;23.00;24.00;25.00;26.00;27.00;28.00;29.00;30.00;31.00;32.00;33.00;34.00;35.00;36.00;37.00;38.00;39.00;40.00;41.00;42.00;43.00;44.00;45.00;46.00;47.00;48.00;49.00;50.00;51.00;52.00;53.00;54.00;55.00;56.00;57.00;58.00;59.00;60.00;61.00;62.00;63.00;64.00;65.00;66.00;67.00;68.00;69.00;70.00;71.00;72.00;73.00;74.00;75.00;76.00;77.00;78.00;79.00;80.00;81.00;82.00;83.00;84.00;85.00;86.00;87.00;88.00;89.00;90.00;91.00;92.00;93.00;94.00;95.00;96.00;97.00;98.00;99.00;100.00;101.00;102.00;103.00;104.00;105.00;106.00;107.00;108.00;109.00;110.00;111.00;112.00;113.00;114.00;115.00;116.00;117.00;118.00;119.00;120.00;
		REF_OVERSCAN_FACTOR=1.00
		SCAN_CURVETYPE=INPLANE_PROFILE
		SCAN_DEPTH=100.00
		SCAN_OFFAXIS_INPLANE=0.00
		SCAN_OFFAXIS_CROSSPLANE=0.00
		SCAN_ANGLE=0.00
		SCAN_DIAGONAL=NOT_DIAGONAL
		SCAN_DIRECTION=POSITIVE
		MEAS_MEDIUM=WATER
		MEAS_PRESET=MEAS_CONTINUOUS_REFERENCE_SCAN
		MEAS_TIME=0.500
		MEAS_UNIT=A.U.
		PRESSURE=1005.52
		TEMPERATURE=22.27
		NORM_TEMPERATURE=20.00
		CORRECTION_FACTOR=1.0000
		EXPECTED_MAX_DOSE_RATE=3.00
		EPOM_DEPTH_SHIFT=0.0
		EPOM_MODE=TRUFIX
		BEGIN_DATA
			-110.00		5.2114E-03		14.264E+00
			-109.00		5.3442E-03		14.251E+00
			-108.00		5.4499E-03		14.254E+00
			-107.00		5.5757E-03		14.261E+00
			-106.00		5.6636E-03		14.254E+00
			-105.00		5.8157E-03		14.248E+00
			-104.00		5.9012E-03		14.248E+00
			-103.00		6.0256E-03		14.258E+00
			-102.00		6.1752E-03		14.258E+00
			-101.00		6.2634E-03		14.251E+00
			-100.00		6.4144E-03		14.248E+00
			-99.00		6.5812E-03		14.258E+00
			-98.00		6.7108E-03		14.254E+00
			-97.00		6.8575E-03		14.261E+00
			-96.00		7.0115E-03		14.251E+00
			-95.00		7.1795E-03		14.258E+00
			-94.00		7.3504E-03		14.258E+00
			-93.00		7.5625E-03		14.261E+00
			-92.00		7.6907E-03		14.261E+00
			-91.00		7.8829E-03		14.261E+00
			-90.00		8.1624E-03		14.258E+00
			-89.00		8.3102E-03		14.261E+00
			-88.00		8.5684E-03		14.258E+00
			-87.00		8.7393E-03		14.258E+00
			-86.00		8.9297E-03		14.261E+00
			-85.00		9.1667E-03		14.258E+00
			-84.00		9.3570E-03		14.261E+00
			-83.00		9.7201E-03		14.261E+00
			-82.00		9.9957E-03		14.264E+00
			-81.00		10.235E-03		14.258E+00
			-80.00		10.534E-03		14.258E+00
			-79.00		10.805E-03		14.267E+00
			-78.00		11.109E-03		14.261E+00
			-77.00		11.474E-03		14.258E+00
			-76.00		11.792E-03		14.261E+00
			-75.00		12.137E-03		14.258E+00
			-74.00		12.516E-03		14.264E+00
			-73.00		12.842E-03		14.258E+00
			-72.00		13.229E-03		14.254E+00
			-71.00		13.657E-03		14.254E+00
			-70.00		14.060E-03		14.258E+00
			-69.00		14.439E-03		14.242E+00
			-68.00		14.997E-03		14.261E+00
			-67.00		15.441E-03		14.245E+00
			-66.00		16.026E-03		14.258E+00
			-65.00		16.585E-03		14.254E+00
			-64.00		17.076E-03		14.254E+00
			-63.00		17.589E-03		14.254E+00
			-62.00		18.230E-03		14.254E+00
			-61.00		18.949E-03		14.261E+00
			-60.00		19.654E-03		14.261E+00
			-59.00		20.282E-03		14.270E+00
			-58.00		21.064E-03		14.261E+00
			-57.00		21.921E-03		14.273E+00
			-56.00		22.827E-03		14.267E+00
			-55.00		23.709E-03		14.276E+00
			-54.00		24.663E-03		14.254E+00
			-53.00		25.705E-03		14.270E+00
			-52.00		26.950E-03		14.254E+00
			-51.00		28.416E-03		14.270E+00
			-50.00		29.951E-03		14.261E+00
			-49.00		31.966E-03		14.258E+00
			-48.00		34.145E-03		14.258E+00
			-47.00		36.787E-03		14.261E+00
			-46.00		40.291E-03		14.261E+00
			-45.00		45.064E-03		14.258E+00
			-44.00		53.141E-03		14.258E+00
			-43.00		67.464E-03		14.261E+00
			-42.00		90.771E-03		14.261E+00
			-41.00		123.18E-03		14.261E+00
			-40.00		163.37E-03		14.264E+00
			-39.00		206.69E-03		14.258E+00
			-38.00		247.92E-03		14.254E+00
			-37.00		281.47E-03		14.254E+00
			-36.00		304.36E-03		14.264E+00
			-35.00		319.16E-03		14.261E+00
			-34.00		327.92E-03		14.261E+00
			-33.00		333.76E-03		14.267E+00
			-32.00		338.03E-03		14.258E+00
			-31.00		341.52E-03		14.264E+00
			-30.00		343.87E-03		14.264E+00
			-29.00		346.44E-03		14.254E+00
			-28.00		348.43E-03		14.261E+00
			-27.00		350.57E-03		14.261E+00
			-26.00		352.43E-03		14.254E+00
			-25.00		354.27E-03		14.258E+00
			-24.00		355.19E-03		14.264E+00
			-23.00		357.11E-03		14.264E+00
			-22.00		358.12E-03		14.258E+00
			-21.00		359.46E-03		14.264E+00
			-20.00		360.38E-03		14.270E+00
			-19.00		361.83E-03		14.254E+00
			-18.00		362.96E-03		14.261E+00
			-17.00		363.89E-03		14.258E+00
			-16.00		364.94E-03		14.267E+00
			-15.00		366.10E-03		14.254E+00
			-14.00		366.72E-03		14.264E+00
			-13.00		367.60E-03		14.254E+00
			-12.00		368.16E-03		14.258E+00
			-11.00		368.96E-03		14.251E+00
			-10.00		369.60E-03		14.251E+00
			-9.00		370.16E-03		14.254E+00
			-8.00		370.73E-03		14.258E+00
			-7.00		370.46E-03		14.251E+00
			-6.00		371.07E-03		14.261E+00
			-5.00		371.10E-03		14.251E+00
			-4.00		371.87E-03		14.254E+00
			-3.00		371.74E-03		14.251E+00
			-2.00		371.72E-03		14.261E+00
			-1.00		372.01E-03		14.258E+00
			0.00		372.09E-03		14.254E+00
			1.00		372.06E-03		14.264E+00
			2.00		371.93E-03		14.261E+00
			3.00		371.72E-03		14.261E+00
			4.00		371.58E-03		14.258E+00
			5.00		371.13E-03		14.267E+00
			6.00		371.15E-03		14.258E+00
			7.00		370.84E-03		14.270E+00
			8.00		370.59E-03		14.254E+00
			9.00		370.06E-03		14.267E+00
			10.00		369.07E-03		14.264E+00
			11.00		368.33E-03		14.276E+00
			12.00		367.66E-03		14.261E+00
			13.00		367.29E-03		14.267E+00
			14.00		366.80E-03		14.261E+00
			15.00		365.44E-03		14.264E+00
			16.00		364.30E-03		14.267E+00
			17.00		363.81E-03		14.261E+00
			18.00		362.61E-03		14.258E+00
			19.00		361.38E-03		14.264E+00
			20.00		360.61E-03		14.261E+00
			21.00		359.48E-03		14.254E+00
			22.00		358.12E-03		14.258E+00
			23.00		356.90E-03		14.264E+00
			24.00		355.73E-03		12.469E+00
			25.00		355.42E-03		16.046E+00
			26.00		353.95E-03		14.236E+00
			27.00		352.32E-03		14.224E+00
			28.00		350.51E-03		14.245E+00
			29.00		347.98E-03		14.279E+00
			30.00		344.71E-03		14.194E+00
			31.00		342.23E-03		14.261E+00
			32.00		339.32E-03		14.258E+00
			33.00		335.11E-03		14.264E+00
			34.00		330.27E-03		14.251E+00
			35.00		322.73E-03		14.264E+00
			36.00		309.55E-03		14.261E+00
			37.00		287.94E-03		14.251E+00
			38.00		257.37E-03		14.264E+00
			39.00		219.18E-03		14.261E+00
			40.00		175.70E-03		14.254E+00
			41.00		132.12E-03		14.264E+00
			42.00		95.192E-03		14.258E+00
			43.00		69.515E-03		14.261E+00
			44.00		54.810E-03		14.251E+00
			45.00		46.358E-03		14.261E+00
			46.00		41.068E-03		14.258E+00
			47.00		37.377E-03		14.264E+00
			48.00		34.466E-03		14.258E+00
			49.00		32.265E-03		14.258E+00
			50.00		30.348E-03		14.254E+00
			51.00		28.706E-03		14.264E+00
			52.00		27.286E-03		14.258E+00
			53.00		26.041E-03		14.261E+00
			54.00		24.829E-03		14.258E+00
			55.00		23.819E-03		14.248E+00
			56.00		22.832E-03		14.264E+00
			57.00		21.975E-03		14.251E+00
			58.00		21.244E-03		14.254E+00
			59.00		20.457E-03		14.251E+00
			60.00		19.586E-03		14.264E+00
			61.00		18.953E-03		14.258E+00
			62.00		18.256E-03		14.251E+00
			63.00		17.632E-03		14.254E+00
			64.00		17.048E-03		14.261E+00
			65.00		16.432E-03		14.258E+00
			66.00		15.958E-03		14.261E+00
			67.00		15.390E-03		14.273E+00
			68.00		14.911E-03		14.261E+00
			69.00		14.460E-03		14.264E+00
			70.00		13.977E-03		14.254E+00
			71.00		13.581E-03		14.267E+00
			72.00		13.133E-03		14.267E+00
			73.00		12.721E-03		14.273E+00
			74.00		12.385E-03		14.267E+00
			75.00		12.081E-03		14.273E+00
			76.00		11.731E-03		14.258E+00
			77.00		11.360E-03		14.267E+00
			78.00		11.090E-03		14.258E+00
			79.00		10.765E-03		14.264E+00
			80.00		10.530E-03		14.264E+00
			81.00		10.256E-03		14.258E+00
			82.00		9.9359E-03		14.258E+00
			83.00		9.6967E-03		14.264E+00
			84.00		9.4912E-03		14.251E+00
			85.00		9.2268E-03		14.264E+00
			86.00		8.9938E-03		14.261E+00
			87.00		8.7783E-03		14.264E+00
			88.00		8.5861E-03		14.264E+00
			89.00		8.3529E-03		14.261E+00
			90.00		8.1624E-03		14.258E+00
			91.00		7.9718E-03		14.254E+00
			92.00		7.7514E-03		14.267E+00
			93.00		7.5609E-03		14.264E+00
			94.00		7.3671E-03		14.267E+00
			95.00		7.2634E-03		14.261E+00
			96.00		7.0498E-03		14.261E+00
			97.00		6.9459E-03		14.254E+00
			98.00		6.7692E-03		14.267E+00
			99.00		6.6425E-03		14.264E+00
			100.00		6.4930E-03		14.264E+00
			101.00		6.3207E-03		14.267E+00
			102.00		6.2380E-03		14.261E+00
			103.00		6.0671E-03		14.261E+00
			104.00		6.0269E-03		14.254E+00
			105.00		5.8321E-03		14.261E+00
			106.00		5.7039E-03		14.261E+00
			107.00		5.5745E-03		14.264E+00
			108.00		5.4891E-03		14.264E+00
			109.00		5.3835E-03		14.261E+00
			110.00		5.2946E-03		14.270E+00
		END_DATA
	END_SCAN  5
	BEGIN_SCAN  6
		TASK_NAME=tba PDD Profiles
		PROGRAM=WaterTankScans
		MEAS_DATE=10-Dec-2023 13:00:50
		LINAC=Ethos1
		MODALITY=X
		ISOCENTER=1000.00
		INPLANE_AXIS=InplaneGT
		CROSSPLANE_AXIS=CrossplAB
		DEPTH_AXIS=Depth
		INPLANE_AXIS_DIR=GUN_TARGET
		CROSSPLANE_AXIS_DIR=LEFT_RIGHT
		DEPTH_AXIS_DIR=UP_DOWN
		ENERGY=6.00
		NOMINAL_DMAX=13.00
		SSD=900.00
		BLOCK=0
		WEDGE_ANGLE=0.00
		FIELD_INPLANE=80.00
		FIELD_CROSSPLANE=80.00
		FIELD_TYPE=RECTANGULAR
		GANTRY=0.00
		GANTRY_UPRIGHT_POSITION=0
		GANTRY_ROTATION=CW
		COLL_ANGLE=0.00
		COLL_OFFSET_INPLANE=0.00
		COLL_OFFSET_CROSSPLANE=0.00
		SCAN_DEVICE=BeamScan
		SCAN_DEVICE_SETUP=BARA_GUN_TARGET
		ELECTROMETER=BeamScan
		RANGE_FIELD=LOW
		RANGE_REFERENCE=LOW
		DETECTOR=THIMBLE_CHAMBER
		DETECTOR_SUBCODE=SEMIFLEX
		DETECTOR_RADIUS=2.40
		DETECTOR_NAME=PTW 31021 Semiflex 3D 668
		DETECTOR_SN=144668
		DETECTOR_CALIBRATION=500000000.00
		DETECTOR_IS_CALIBRATED=1
		DETECTOR_REFERENCE=THIMBLE_CHAMBER
		DETECTOR_REFERENCE_SUBCODE=SEMIFLEX
		DETECTOR_REFERENCE_RADIUS=2.40
		DETECTOR_REFERENCE_NAME=PTW 31021 Semiflex 3D 669
		DETECTOR_REFERENCE_SN=144669
		DETECTOR_REFERENCE_IS_CALIBRATED=0
		DETECTOR_REFERENCE_CALIBRATION=500000000.00
		DETECTOR_HV=400.0
		DETECTOR_REFERENCE_HV=400.0
		DETECTOR_ORIENTATION=HORIZONTAL
		FILTER=FFF
		SCAN_SPEED_PROFILE=2.00
		SCAN_PROF_SPEED_DEP=NONE
		SCAN_SPEED_PDD=2.00
		SCAN_PDD_SPEED_DEP=NONE
		DETECTOR_TYPE=T31021
		REF_FIELD_DEPTH=100.00
		REF_FIELD_DEFINED=ISOCENTER
		REF_FIELD_INPLANE=100.00
		REF_FIELD_CROSSPLANE=100.00
		REF_SCAN_POSITIONS=-120.00;-119.00;-118.00;-117.00;-116.00;-115.00;-114.00;-113.00;-112.00;-111.00;-110.00;-109.00;-108.00;-107.00;-106.00;-105.00;-104.00;-103.00;-102.00;-101.00;-100.00;-99.00;-98.00;-97.00;-96.00;-95.00;-94.00;-93.00;-92.00;-91.00;-90.00;-89.00;-88.00;-87.00;-86.00;-85.00;-84.00;-83.00;-82.00;-81.00;-80.00;-79.00;-78.00;-77.00;-76.00;-75.00;-74.00;-73.00;-72.00;-71.00;-70.00;-69.00;-68.00;-67.00;-66.00;-65.00;-64.00;-63.00;-62.00;-61.00;-60.00;-59.00;-58.00;-57.00;-56.00;-55.00;-54.00;-53.00;-52.00;-51.00;-50.00;-49.00;-48.00;-47.00;-46.00;-45.00;-44.00;-43.00;-42.00;-41.00;-40.00;-39.00;-38.00;-37.00;-36.00;-35.00;-34.00;-33.00;-32.00;-31.00;-30.00;-29.00;-28.00;-27.00;-26.00;-25.00;-24.00;-23.00;-22.00;-21.00;-20.00;-19.00;-18.00;-17.00;-16.00;-15.00;-14.00;-13.00;-12.00;-11.00;-10.00;-9.00;-8.00;-7.00;-6.00;-5.00;-4.00;-3.00;-2.00;-1.00;0.00;1.00;2.00;3.00;4.00;5.00;6.00;7.00;8.00;9.00;10.00;11.00;12.00;13.00;14.00;15.00;16.00;17.00;18.00;19.00;20.00;21.00;22.00;23.00;24.00;25.00;26.00;27.00;28.00;29.00;30.00;31.00;32.00;33.00;34.00;35.00;36.00;37.00;38.00;39.00;40.00;41.00;42.00;43.00;44.00;45.00;46.00;47.00;48.00;49.00;50.00;51.00;52.00;53.00;54.00;55.00;56.00;57.00;58.00;59.00;60.00;61.00;62.00;63.00;64.00;65.00;66.00;67.00;68.00;69.00;70.00;71.00;72.00;73.00;74.00;75.00;76.00;77.00;78.00;79.00;80.00;81.00;82.00;83.00;84.00;85.00;86.00;87.00;88.00;89.00;90.00;91.00;92.00;93.00;94.00;95.00;96.00;97.00;98.00;99.00;100.00;101.00;102.00;103.00;104.00;105.00;106.00;107.00;108.00;109.00;110.00;111.00;112.00;113.00;114.00;115.00;116.00;117.00;118.00;119.00;120.00;
		REF_OVERSCAN_FACTOR=1.00
		SCAN_CURVETYPE=CROSSPLANE_PROFILE
		SCAN_DEPTH=100.00
		SCAN_OFFAXIS_INPLANE=0.00
		SCAN_OFFAXIS_CROSSPLANE=0.00
		SCAN_ANGLE=0.00
		SCAN_DIAGONAL=NOT_DIAGONAL
		SCAN_DIRECTION=POSITIVE
		MEAS_MEDIUM=WATER
		MEAS_PRESET=MEAS_CONTINUOUS_REFERENCE_SCAN
		MEAS_TIME=0.500
		MEAS_UNIT=A.U.
		PRESSURE=1005.62
		TEMPERATURE=22.29
		NORM_TEMPERATURE=20.00
		CORRECTION_FACTOR=1.0000
		EXPECTED_MAX_DOSE_RATE=3.00
		EPOM_DEPTH_SHIFT=0.0
		EPOM_MODE=TRUFIX
		BEGIN_DATA
			-110.00		5.2935E-03		14.272E+00
			-109.00		5.3823E-03		14.263E+00
			-108.00		5.5508E-03		14.269E+00
			-107.00		5.6588E-03		14.266E+00
			-106.00		5.7668E-03		14.263E+00
			-105.00		5.7881E-03		14.263E+00
			-104.00		6.0004E-03		14.266E+00
			-103.00		6.1312E-03		14.260E+00
			-102.00		6.1926E-03		14.266E+00
			-101.00		6.3662E-03		14.260E+00
			-100.00		6.4716E-03		14.263E+00
			-99.00		6.6866E-03		14.260E+00
			-98.00		6.8133E-03		14.263E+00
			-97.00		7.0056E-03		14.263E+00
			-96.00		7.1108E-03		14.266E+00
			-95.00		7.3030E-03		14.266E+00
			-94.00		7.4754E-03		14.263E+00
			-93.00		7.6249E-03		14.263E+00
			-92.00		7.7531E-03		14.263E+00
			-91.00		8.0060E-03		14.269E+00
			-90.00		8.2016E-03		14.263E+00
			-89.00		8.4348E-03		14.266E+00
			-88.00		8.6288E-03		14.263E+00
			-87.00		8.8618E-03		14.266E+00
			-86.00		9.0346E-03		14.263E+00
			-85.00		9.2442E-03		14.269E+00
			-84.00		9.5238E-03		14.266E+00
			-83.00		9.7801E-03		14.266E+00
			-82.00		10.017E-03		14.263E+00
			-81.00		10.273E-03		14.263E+00
			-80.00		10.572E-03		14.263E+00
			-79.00		10.831E-03		14.260E+00
			-78.00		11.170E-03		14.263E+00
			-77.00		11.429E-03		14.260E+00
			-76.00		11.752E-03		14.257E+00
			-75.00		12.110E-03		14.263E+00
			-74.00		12.497E-03		14.260E+00
			-73.00		12.855E-03		14.266E+00
			-72.00		13.264E-03		14.263E+00
			-71.00		13.691E-03		14.263E+00
			-70.00		14.048E-03		14.269E+00
			-69.00		14.545E-03		14.263E+00
			-68.00		14.926E-03		14.266E+00
			-67.00		15.531E-03		14.260E+00
			-66.00		16.068E-03		14.257E+00
			-65.00		16.556E-03		14.260E+00
			-64.00		17.140E-03		14.254E+00
			-63.00		17.720E-03		14.269E+00
			-62.00		18.384E-03		14.251E+00
			-61.00		19.098E-03		14.260E+00
			-60.00		19.731E-03		14.251E+00
			-59.00		20.461E-03		14.263E+00
			-58.00		21.282E-03		14.257E+00
			-57.00		22.118E-03		14.269E+00
			-56.00		23.093E-03		14.260E+00
			-55.00		24.119E-03		14.260E+00
			-54.00		25.176E-03		14.254E+00
			-53.00		26.356E-03		14.263E+00
			-52.00		27.510E-03		14.263E+00
			-51.00		28.999E-03		14.266E+00
			-50.00		30.728E-03		14.266E+00
			-49.00		32.721E-03		14.263E+00
			-48.00		35.062E-03		14.275E+00
			-47.00		38.154E-03		14.260E+00
			-46.00		42.299E-03		14.281E+00
			-45.00		48.676E-03		14.263E+00
			-44.00		58.831E-03		14.281E+00
			-43.00		76.366E-03		14.269E+00
			-42.00		103.33E-03		14.266E+00
			-41.00		139.75E-03		14.263E+00
			-40.00		181.83E-03		14.269E+00
			-39.00		224.57E-03		14.257E+00
			-38.00		261.85E-03		14.263E+00
			-37.00		290.72E-03		14.272E+00
			-36.00		310.06E-03		14.266E+00
			-35.00		322.44E-03		14.266E+00
			-34.00		329.77E-03		14.263E+00
			-33.00		335.11E-03		14.263E+00
			-32.00		338.74E-03		14.263E+00
			-31.00		341.66E-03		14.266E+00
			-30.00		344.01E-03		14.266E+00
			-29.00		346.79E-03		14.266E+00
			-28.00		348.49E-03		14.266E+00
			-27.00		350.42E-03		14.266E+00
			-26.00		352.05E-03		14.269E+00
			-25.00		353.98E-03		14.260E+00
			-24.00		355.69E-03		14.260E+00
			-23.00		356.82E-03		14.266E+00
			-22.00		357.81E-03		14.269E+00
			-21.00		359.46E-03		14.263E+00
			-20.00		360.51E-03		14.272E+00
			-19.00		361.81E-03		14.263E+00
			-18.00		362.96E-03		14.260E+00
			-17.00		364.24E-03		14.260E+00
			-16.00		365.01E-03		14.263E+00
			-15.00		365.52E-03		14.260E+00
			-14.00		366.72E-03		14.263E+00
			-13.00		367.07E-03		14.266E+00
			-12.00		367.71E-03		14.266E+00
			-11.00		368.78E-03		14.266E+00
			-10.00		369.15E-03		14.260E+00
			-9.00		370.01E-03		14.260E+00
			-8.00		370.43E-03		14.260E+00
			-7.00		370.57E-03		14.263E+00
			-6.00		371.45E-03		14.254E+00
			-5.00		371.05E-03		14.269E+00
			-4.00		371.42E-03		14.263E+00
			-3.00		371.79E-03		14.257E+00
			-2.00		371.64E-03		14.263E+00
			-1.00		371.72E-03		14.260E+00
			0.00		371.66E-03		14.254E+00
			1.00		372.06E-03		14.263E+00
			2.00		371.74E-03		14.251E+00
			3.00		371.79E-03		14.257E+00
			4.00		371.74E-03		14.251E+00
			5.00		371.42E-03		14.263E+00
			6.00		370.94E-03		14.257E+00
			7.00		370.70E-03		14.266E+00
			8.00		370.35E-03		14.263E+00
			9.00		370.09E-03		14.257E+00
			10.00		369.42E-03		14.266E+00
			11.00		368.72E-03		14.260E+00
			12.00		367.85E-03		14.269E+00
			13.00		366.92E-03		14.272E+00
			14.00		366.55E-03		14.278E+00
			15.00		365.79E-03		14.266E+00
			16.00		365.13E-03		14.275E+00
			17.00		364.08E-03		14.266E+00
			18.00		362.98E-03		14.285E+00
			19.00		362.10E-03		14.260E+00
			20.00		360.88E-03		14.266E+00
			21.00		359.54E-03		14.260E+00
			22.00		358.10E-03		14.266E+00
			23.00		357.34E-03		14.254E+00
			24.00		355.62E-03		14.263E+00
			25.00		353.98E-03		14.260E+00
			26.00		352.26E-03		14.269E+00
			27.00		350.49E-03		14.263E+00
			28.00		348.49E-03		14.266E+00
			29.00		346.51E-03		14.260E+00
			30.00		344.15E-03		14.269E+00
			31.00		340.95E-03		14.260E+00
			32.00		337.60E-03		14.266E+00
			33.00		333.48E-03		14.260E+00
			34.00		327.42E-03		14.263E+00
			35.00		318.24E-03		14.263E+00
			36.00		303.72E-03		14.263E+00
			37.00		281.14E-03		14.260E+00
			38.00		249.41E-03		14.266E+00
			39.00		209.65E-03		14.266E+00
			40.00		167.14E-03		14.266E+00
			41.00		126.59E-03		14.263E+00
			42.00		93.442E-03		14.260E+00
			43.00		69.400E-03		14.266E+00
			44.00		54.837E-03		14.266E+00
			45.00		46.326E-03		14.263E+00
			46.00		41.127E-03		14.266E+00
			47.00		37.356E-03		14.263E+00
			48.00		34.550E-03		14.266E+00
			49.00		32.266E-03		14.266E+00
			50.00		30.472E-03		14.266E+00
			51.00		28.840E-03		14.260E+00
			52.00		27.515E-03		14.260E+00
			53.00		26.036E-03		14.263E+00
			54.00		25.091E-03		14.266E+00
			55.00		24.007E-03		14.263E+00
			56.00		23.024E-03		14.263E+00
			57.00		22.085E-03		14.263E+00
			58.00		21.320E-03		14.260E+00
			59.00		20.577E-03		14.257E+00
			60.00		19.825E-03		14.260E+00
			61.00		19.094E-03		14.263E+00
			62.00		18.419E-03		14.257E+00
			63.00		17.685E-03		14.263E+00
			64.00		17.123E-03		14.251E+00
			65.00		16.578E-03		14.260E+00
			66.00		16.032E-03		14.251E+00
			67.00		15.570E-03		14.263E+00
			68.00		14.975E-03		14.260E+00
			69.00		14.518E-03		14.269E+00
			70.00		14.100E-03		14.260E+00
			71.00		13.691E-03		14.263E+00
			72.00		13.349E-03		14.263E+00
			73.00		12.879E-03		14.263E+00
			74.00		12.513E-03		14.266E+00
			75.00		12.115E-03		14.257E+00
			76.00		11.809E-03		14.266E+00
			77.00		11.488E-03		14.266E+00
			78.00		11.159E-03		14.278E+00
			79.00		10.869E-03		14.266E+00
			80.00		10.542E-03		14.275E+00
			81.00		10.293E-03		14.266E+00
			82.00		10.009E-03		14.275E+00
			83.00		9.7972E-03		14.272E+00
			84.00		9.5858E-03		14.269E+00
			85.00		9.3336E-03		14.263E+00
			86.00		9.0754E-03		14.266E+00
			87.00		8.8424E-03		14.263E+00
			88.00		8.6929E-03		14.263E+00
			89.00		8.5006E-03		14.263E+00
			90.00		8.2479E-03		14.257E+00
			91.00		8.0521E-03		14.263E+00
			92.00		7.8796E-03		14.266E+00
			93.00		7.6447E-03		14.266E+00
			94.00		7.5182E-03		14.263E+00
			95.00		7.3473E-03		14.263E+00
			96.00		7.1337E-03		14.263E+00
			97.00		7.0224E-03		14.272E+00
			98.00		6.8546E-03		14.266E+00
			99.00		6.7279E-03		14.263E+00
			100.00		6.5997E-03		14.263E+00
			101.00		6.3648E-03		14.263E+00
			102.00		6.3221E-03		14.263E+00
			103.00		6.1713E-03		14.266E+00
			104.00		6.0218E-03		14.266E+00
			105.00		5.8723E-03		14.266E+00
			106.00		5.7442E-03		14.266E+00
			107.00		5.6801E-03		14.266E+00
			108.00		5.5520E-03		14.266E+00
			109.00		5.4464E-03		14.263E+00
			110.00		5.2969E-03		14.263E+00
		END_DATA
	END_SCAN  6
	BEGIN_SCAN  7
		TASK_NAME=tba PDD Profiles
		PROGRAM=WaterTankScans
		MEAS_DATE=10-Dec-2023 13:02:52
		LINAC=Ethos1
		MODALITY=X
		ISOCENTER=1000.00
		INPLANE_AXIS=InplaneGT
		CROSSPLANE_AXIS=CrossplAB
		DEPTH_AXIS=Depth
		INPLANE_AXIS_DIR=GUN_TARGET
		CROSSPLANE_AXIS_DIR=LEFT_RIGHT
		DEPTH_AXIS_DIR=UP_DOWN
		ENERGY=6.00
		NOMINAL_DMAX=13.00
		SSD=900.00
		BLOCK=0
		WEDGE_ANGLE=0.00
		FIELD_INPLANE=80.00
		FIELD_CROSSPLANE=80.00
		FIELD_TYPE=RECTANGULAR
		GANTRY=0.00
		GANTRY_UPRIGHT_POSITION=0
		GANTRY_ROTATION=CW
		COLL_ANGLE=0.00
		COLL_OFFSET_INPLANE=0.00
		COLL_OFFSET_CROSSPLANE=0.00
		SCAN_DEVICE=BeamScan
		SCAN_DEVICE_SETUP=BARA_GUN_TARGET
		ELECTROMETER=BeamScan
		RANGE_FIELD=LOW
		RANGE_REFERENCE=LOW
		DETECTOR=THIMBLE_CHAMBER
		DETECTOR_SUBCODE=SEMIFLEX
		DETECTOR_RADIUS=2.40
		DETECTOR_NAME=PTW 31021 Semiflex 3D 668
		DETECTOR_SN=144668
		DETECTOR_CALIBRATION=500000000.00
		DETECTOR_IS_CALIBRATED=1
		DETECTOR_REFERENCE=THIMBLE_CHAMBER
		DETECTOR_REFERENCE_SUBCODE=SEMIFLEX
		DETECTOR_REFERENCE_RADIUS=2.40
		DETECTOR_REFERENCE_NAME=PTW 31021 Semiflex 3D 669
		DETECTOR_REFERENCE_SN=144669
		DETECTOR_REFERENCE_IS_CALIBRATED=0
		DETECTOR_REFERENCE_CALIBRATION=500000000.00
		DETECTOR_HV=400.0
		DETECTOR_REFERENCE_HV=400.0
		DETECTOR_ORIENTATION=HORIZONTAL
		FILTER=FFF
		SCAN_SPEED_PROFILE=2.00
		SCAN_PROF_SPEED_DEP=NONE
		SCAN_SPEED_PDD=2.00
		SCAN_PDD_SPEED_DEP=NONE
		DETECTOR_TYPE=T31021
		REF_FIELD_DEPTH=100.00
		REF_FIELD_DEFINED=ISOCENTER
		REF_FIELD_INPLANE=100.00
		REF_FIELD_CROSSPLANE=100.00
		REF_SCAN_POSITIONS=-120.00;-119.00;-118.00;-117.00;-116.00;-115.00;-114.00;-113.00;-112.00;-111.00;-110.00;-109.00;-108.00;-107.00;-106.00;-105.00;-104.00;-103.00;-102.00;-101.00;-100.00;-99.00;-98.00;-97.00;-96.00;-95.00;-94.00;-93.00;-92.00;-91.00;-90.00;-89.00;-88.00;-87.00;-86.00;-85.00;-84.00;-83.00;-82.00;-81.00;-80.00;-79.00;-78.00;-77.00;-76.00;-75.00;-74.00;-73.00;-72.00;-71.00;-70.00;-69.00;-68.00;-67.00;-66.00;-65.00;-64.00;-63.00;-62.00;-61.00;-60.00;-59.00;-58.00;-57.00;-56.00;-55.00;-54.00;-53.00;-52.00;-51.00;-50.00;-49.00;-48.00;-47.00;-46.00;-45.00;-44.00;-43.00;-42.00;-41.00;-40.00;-39.00;-38.00;-37.00;-36.00;-35.00;-34.00;-33.00;-32.00;-31.00;-30.00;-29.00;-28.00;-27.00;-26.00;-25.00;-24.00;-23.00;-22.00;-21.00;-20.00;-19.00;-18.00;-17.00;-16.00;-15.00;-14.00;-13.00;-12.00;-11.00;-10.00;-9.00;-8.00;-7.00;-6.00;-5.00;-4.00;-3.00;-2.00;-1.00;0.00;1.00;2.00;3.00;4.00;5.00;6.00;7.00;8.00;9.00;10.00;11.00;12.00;13.00;14.00;15.00;16.00;17.00;18.00;19.00;20.00;21.00;22.00;23.00;24.00;25.00;26.00;27.00;28.00;29.00;30.00;31.00;32.00;33.00;34.00;35.00;36.00;37.00;38.00;39.00;40.00;41.00;42.00;43.00;44.00;45.00;46.00;47.00;48.00;49.00;50.00;51.00;52.00;53.00;54.00;55.00;56.00;57.00;58.00;59.00;60.00;61.00;62.00;63.00;64.00;65.00;66.00;67.00;68.00;69.00;70.00;71.00;72.00;73.00;74.00;75.00;76.00;77.00;78.00;79.00;80.00;81.00;82.00;83.00;84.00;85.00;86.00;87.00;88.00;89.00;90.00;91.00;92.00;93.00;94.00;95.00;96.00;97.00;98.00;99.00;100.00;101.00;102.00;103.00;104.00;105.00;106.00;107.00;108.00;109.00;110.00;111.00;112.00;113.00;114.00;115.00;116.00;117.00;118.00;119.00;120.00;
		REF_OVERSCAN_FACTOR=1.00
		SCAN_CURVETYPE=INPLANE_PROFILE
		SCAN_DEPTH=200.00
		SCAN_OFFAXIS_INPLANE=0.00
		SCAN_OFFAXIS_CROSSPLANE=0.00
		SCAN_ANGLE=0.00
		SCAN_DIAGONAL=NOT_DIAGONAL
		SCAN_DIRECTION=POSITIVE
		MEAS_MEDIUM=WATER
		MEAS_PRESET=MEAS_CONTINUOUS_REFERENCE_SCAN
		MEAS_TIME=0.500
		MEAS_UNIT=A.U.
		PRESSURE=1005.67
		TEMPERATURE=22.29
		NORM_TEMPERATURE=20.00
		CORRECTION_FACTOR=1.0000
		EXPECTED_MAX_DOSE_RATE=3.00
		EPOM_DEPTH_SHIFT=0.0
		EPOM_MODE=TRUFIX
		BEGIN_DATA
			-121.00		4.7619E-03		14.266E+00
			-120.00		4.8249E-03		14.269E+00
			-119.00		4.8911E-03		14.262E+00
			-118.00		4.9712E-03		14.278E+00
			-117.00		5.0598E-03		14.269E+00
			-116.00		5.1643E-03		14.275E+00
			-115.00		5.2958E-03		14.266E+00
			-114.00		5.3552E-03		14.278E+00
			-113.00		5.4666E-03		14.266E+00
			-112.00		5.5734E-03		14.266E+00
			-111.00		5.6161E-03		14.266E+00
			-110.00		5.7466E-03		14.259E+00
			-109.00		5.8937E-03		14.266E+00
			-108.00		5.9816E-03		14.259E+00
			-107.00		6.0431E-03		14.266E+00
			-106.00		6.1739E-03		14.259E+00
			-105.00		6.3421E-03		14.266E+00
			-104.00		6.4048E-03		14.269E+00
			-103.00		6.5556E-03		14.266E+00
			-102.00		6.6852E-03		14.262E+00
			-101.00		6.8361E-03		14.259E+00
			-100.00		6.9613E-03		14.266E+00
			-99.00		7.1093E-03		14.269E+00
			-98.00		7.2389E-03		14.266E+00
			-97.00		7.3900E-03		14.262E+00
			-96.00		7.5165E-03		14.266E+00
			-95.00		7.6841E-03		14.272E+00
			-94.00		7.8599E-03		14.262E+00
			-93.00		7.9863E-03		14.266E+00
			-92.00		8.2443E-03		14.262E+00
			-91.00		8.3725E-03		14.262E+00
			-90.00		8.5415E-03		14.266E+00
			-89.00		8.7588E-03		14.259E+00
			-88.00		8.9900E-03		14.266E+00
			-87.00		9.1608E-03		14.266E+00
			-86.00		9.3570E-03		14.259E+00
			-85.00		9.5879E-03		14.266E+00
			-84.00		9.8228E-03		14.266E+00
			-83.00		10.058E-03		14.266E+00
			-82.00		10.293E-03		14.266E+00
			-81.00		10.487E-03		14.262E+00
			-80.00		10.765E-03		14.262E+00
			-79.00		11.000E-03		14.262E+00
			-78.00		11.256E-03		14.262E+00
			-77.00		11.595E-03		14.266E+00
			-76.00		11.825E-03		14.272E+00
			-75.00		12.190E-03		14.269E+00
			-74.00		12.412E-03		14.259E+00
			-73.00		12.751E-03		14.262E+00
			-72.00		13.071E-03		14.262E+00
			-71.00		13.389E-03		14.266E+00
			-70.00		13.715E-03		14.259E+00
			-69.00		14.091E-03		14.269E+00
			-68.00		14.493E-03		14.250E+00
			-67.00		14.865E-03		14.262E+00
			-66.00		15.256E-03		14.256E+00
			-65.00		15.677E-03		14.262E+00
			-64.00		16.179E-03		14.253E+00
			-63.00		16.663E-03		14.259E+00
			-62.00		17.051E-03		14.256E+00
			-61.00		17.528E-03		14.269E+00
			-60.00		18.120E-03		14.256E+00
			-59.00		18.617E-03		14.269E+00
			-58.00		19.236E-03		14.269E+00
			-57.00		19.868E-03		14.259E+00
			-56.00		20.555E-03		14.272E+00
			-55.00		21.268E-03		14.266E+00
			-54.00		22.220E-03		14.272E+00
			-53.00		23.217E-03		14.262E+00
			-52.00		24.381E-03		14.269E+00
			-51.00		25.838E-03		14.266E+00
			-50.00		27.630E-03		14.278E+00
			-49.00		30.449E-03		14.256E+00
			-48.00		34.557E-03		14.272E+00
			-47.00		41.350E-03		14.262E+00
			-46.00		51.709E-03		14.262E+00
			-45.00		65.762E-03		14.262E+00
			-44.00		83.123E-03		14.259E+00
			-43.00		102.86E-03		14.269E+00
			-42.00		122.61E-03		14.253E+00
			-41.00		139.82E-03		14.266E+00
			-40.00		152.89E-03		14.259E+00
			-39.00		161.41E-03		14.262E+00
			-38.00		166.85E-03		14.262E+00
			-37.00		170.18E-03		14.262E+00
			-36.00		172.71E-03		14.256E+00
			-35.00		174.66E-03		14.259E+00
			-34.00		176.01E-03		14.259E+00
			-33.00		177.44E-03		14.272E+00
			-32.00		178.75E-03		14.262E+00
			-31.00		179.86E-03		14.266E+00
			-30.00		180.82E-03		14.262E+00
			-29.00		181.74E-03		14.266E+00
			-28.00		182.50E-03		14.259E+00
			-27.00		183.47E-03		14.259E+00
			-26.00		184.26E-03		14.262E+00
			-25.00		184.90E-03		14.266E+00
			-24.00		185.66E-03		14.272E+00
			-23.00		186.20E-03		14.262E+00
			-22.00		186.82E-03		14.266E+00
			-21.00		187.36E-03		14.269E+00
			-20.00		188.06E-03		14.262E+00
			-19.00		188.58E-03		14.266E+00
			-18.00		189.13E-03		14.266E+00
			-17.00		189.70E-03		14.259E+00
			-16.00		190.09E-03		14.266E+00
			-15.00		190.47E-03		14.262E+00
			-14.00		190.86E-03		14.259E+00
			-13.00		191.18E-03		14.262E+00
			-12.00		191.44E-03		14.266E+00
			-11.00		191.59E-03		14.266E+00
			-10.00		192.10E-03		14.266E+00
			-9.00		192.42E-03		14.259E+00
			-8.00		192.65E-03		14.259E+00
			-7.00		192.57E-03		14.259E+00
			-6.00		193.10E-03		14.250E+00
			-5.00		192.84E-03		14.259E+00
			-4.00		193.22E-03		14.247E+00
			-3.00		193.27E-03		14.259E+00
			-2.00		193.23E-03		14.253E+00
			-1.00		193.40E-03		14.259E+00
			0.00		193.61E-03		14.250E+00
			1.00		193.30E-03		14.269E+00
			2.00		193.33E-03		14.259E+00
			3.00		193.23E-03		14.262E+00
			4.00		193.34E-03		14.262E+00
			5.00		193.12E-03		14.259E+00
			6.00		192.85E-03		14.272E+00
			7.00		192.93E-03		14.259E+00
			8.00		192.53E-03		14.272E+00
			9.00		192.39E-03		14.256E+00
			10.00		192.23E-03		14.272E+00
			11.00		191.82E-03		14.259E+00
			12.00		191.44E-03		14.272E+00
			13.00		191.18E-03		14.259E+00
			14.00		190.72E-03		14.275E+00
			15.00		190.31E-03		14.266E+00
			16.00		189.97E-03		14.269E+00
			17.00		189.35E-03		14.272E+00
			18.00		188.96E-03		14.269E+00
			19.00		188.72E-03		14.259E+00
			20.00		188.08E-03		14.262E+00
			21.00		187.53E-03		14.262E+00
			22.00		186.84E-03		14.259E+00
			23.00		186.52E-03		14.262E+00
			24.00		185.73E-03		14.262E+00
			25.00		185.24E-03		14.259E+00
			26.00		184.45E-03		14.262E+00
			27.00		183.74E-03		14.259E+00
			28.00		182.95E-03		14.256E+00
			29.00		181.98E-03		14.269E+00
			30.00		181.21E-03		14.266E+00
			31.00		180.50E-03		14.262E+00
			32.00		179.40E-03		14.256E+00
			33.00		178.41E-03		14.262E+00
			34.00		177.20E-03		14.256E+00
			35.00		175.76E-03		14.262E+00
			36.00		174.04E-03		14.259E+00
			37.00		172.12E-03		14.259E+00
			38.00		169.24E-03		14.262E+00
			39.00		165.26E-03		14.259E+00
			40.00		159.00E-03		14.259E+00
			41.00		149.00E-03		14.262E+00
			42.00		135.16E-03		14.262E+00
			43.00		116.74E-03		14.266E+00
			44.00		96.220E-03		14.262E+00
			45.00		75.459E-03		14.262E+00
			46.00		58.091E-03		14.269E+00
			47.00		45.420E-03		14.266E+00
			48.00		37.441E-03		14.262E+00
			49.00		32.465E-03		14.262E+00
			50.00		29.191E-03		14.266E+00
			51.00		26.949E-03		14.266E+00
			52.00		25.315E-03		14.259E+00
			53.00		23.948E-03		14.259E+00
			54.00		22.832E-03		14.262E+00
			55.00		21.961E-03		14.259E+00
			56.00		21.085E-03		14.259E+00
			57.00		20.338E-03		14.259E+00
			58.00		19.679E-03		14.256E+00
			59.00		19.005E-03		14.266E+00
			60.00		18.448E-03		14.250E+00
			61.00		17.924E-03		14.259E+00
			62.00		17.383E-03		14.247E+00
			63.00		16.788E-03		14.262E+00
			64.00		16.382E-03		14.262E+00
			65.00		16.022E-03		14.259E+00
			66.00		15.534E-03		14.256E+00
			67.00		15.168E-03		14.259E+00
			68.00		14.731E-03		14.269E+00
			69.00		14.289E-03		14.262E+00
			70.00		13.892E-03		14.275E+00
			71.00		13.605E-03		14.262E+00
			72.00		13.212E-03		14.272E+00
			73.00		12.876E-03		14.266E+00
			74.00		12.631E-03		14.278E+00
			75.00		12.324E-03		14.262E+00
			76.00		12.036E-03		14.275E+00
			77.00		11.707E-03		14.259E+00
			78.00		11.467E-03		14.266E+00
			79.00		11.147E-03		14.266E+00
			80.00		10.978E-03		14.262E+00
			81.00		10.641E-03		14.256E+00
			82.00		10.463E-03		14.266E+00
			83.00		10.188E-03		14.262E+00
			84.00		9.9744E-03		14.262E+00
			85.00		9.8291E-03		14.256E+00
			86.00		9.5452E-03		14.266E+00
			87.00		9.2502E-03		14.259E+00
			88.00		9.0754E-03		14.266E+00
			89.00		8.9045E-03		14.266E+00
			90.00		8.7569E-03		14.262E+00
			91.00		8.5025E-03		14.259E+00
			92.00		8.3316E-03		14.259E+00
			93.00		8.1589E-03		14.262E+00
			94.00		7.9897E-03		14.259E+00
			95.00		7.8369E-03		14.266E+00
			96.00		7.7137E-03		14.256E+00
			97.00		7.5593E-03		14.266E+00
			98.00		7.3868E-03		14.269E+00
			99.00		7.2634E-03		14.259E+00
			100.00		7.1171E-03		13.525E+00
			101.00		6.9239E-03		15.003E+00
			102.00		6.8493E-03		14.232E+00
			103.00		6.7180E-03		14.238E+00
			104.00		6.5784E-03		14.262E+00
			105.00		6.4551E-03		14.205E+00
			106.00		6.2593E-03		14.259E+00
			107.00		6.1966E-03		14.256E+00
			108.00		6.0897E-03		14.256E+00
			109.00		5.9816E-03		14.259E+00
			110.00		5.8974E-03		14.256E+00
			111.00		5.7692E-03		14.256E+00
			112.00		5.6624E-03		14.256E+00
			113.00		5.4915E-03		14.256E+00
			114.00		5.4262E-03		14.259E+00
			115.00		5.3632E-03		14.256E+00
			116.00		5.2350E-03		14.256E+00
			117.00		5.1496E-03		14.256E+00
			118.00		5.0427E-03		14.256E+00
			119.00		4.9786E-03		14.256E+00
			120.00		4.8311E-03		14.250E+00
			121.00		4.8067E-03		14.259E+00
		END_DATA
	END_SCAN  7
	BEGIN_SCAN  8
		TASK_NAME=tba PDD Profiles
		PROGRAM=WaterTankScans
		MEAS_DATE=10-Dec-2023 13:05:07
		LINAC=Ethos1
		MODALITY=X
		ISOCENTER=1000.00
		INPLANE_AXIS=InplaneGT
		CROSSPLANE_AXIS=CrossplAB
		DEPTH_AXIS=Depth
		INPLANE_AXIS_DIR=GUN_TARGET
		CROSSPLANE_AXIS_DIR=LEFT_RIGHT
		DEPTH_AXIS_DIR=UP_DOWN
		ENERGY=6.00
		NOMINAL_DMAX=13.00
		SSD=900.00
		BLOCK=0
		WEDGE_ANGLE=0.00
		FIELD_INPLANE=80.00
		FIELD_CROSSPLANE=80.00
		FIELD_TYPE=RECTANGULAR
		GANTRY=0.00
		GANTRY_UPRIGHT_POSITION=0
		GANTRY_ROTATION=CW
		COLL_ANGLE=0.00
		COLL_OFFSET_INPLANE=0.00
		COLL_OFFSET_CROSSPLANE=0.00
		SCAN_DEVICE=BeamScan
		SCAN_DEVICE_SETUP=BARA_GUN_TARGET
		ELECTROMETER=BeamScan
		RANGE_FIELD=LOW
		RANGE_REFERENCE=LOW
		DETECTOR=THIMBLE_CHAMBER
		DETECTOR_SUBCODE=SEMIFLEX
		DETECTOR_RADIUS=2.40
		DETECTOR_NAME=PTW 31021 Semiflex 3D 668
		DETECTOR_SN=144668
		DETECTOR_CALIBRATION=500000000.00
		DETECTOR_IS_CALIBRATED=1
		DETECTOR_REFERENCE=THIMBLE_CHAMBER
		DETECTOR_REFERENCE_SUBCODE=SEMIFLEX
		DETECTOR_REFERENCE_RADIUS=2.40
		DETECTOR_REFERENCE_NAME=PTW 31021 Semiflex 3D 669
		DETECTOR_REFERENCE_SN=144669
		DETECTOR_REFERENCE_IS_CALIBRATED=0
		DETECTOR_REFERENCE_CALIBRATION=500000000.00
		DETECTOR_HV=400.0
		DETECTOR_REFERENCE_HV=400.0
		DETECTOR_ORIENTATION=HORIZONTAL
		FILTER=FFF
		SCAN_SPEED_PROFILE=2.00
		SCAN_PROF_SPEED_DEP=NONE
		SCAN_SPEED_PDD=2.00
		SCAN_PDD_SPEED_DEP=NONE
		DETECTOR_TYPE=T31021
		REF_FIELD_DEPTH=100.00
		REF_FIELD_DEFINED=ISOCENTER
		REF_FIELD_INPLANE=100.00
		REF_FIELD_CROSSPLANE=100.00
		REF_SCAN_POSITIONS=-120.00;-119.00;-118.00;-117.00;-116.00;-115.00;-114.00;-113.00;-112.00;-111.00;-110.00;-109.00;-108.00;-107.00;-106.00;-105.00;-104.00;-103.00;-102.00;-101.00;-100.00;-99.00;-98.00;-97.00;-96.00;-95.00;-94.00;-93.00;-92.00;-91.00;-90.00;-89.00;-88.00;-87.00;-86.00;-85.00;-84.00;-83.00;-82.00;-81.00;-80.00;-79.00;-78.00;-77.00;-76.00;-75.00;-74.00;-73.00;-72.00;-71.00;-70.00;-69.00;-68.00;-67.00;-66.00;-65.00;-64.00;-63.00;-62.00;-61.00;-60.00;-59.00;-58.00;-57.00;-56.00;-55.00;-54.00;-53.00;-52.00;-51.00;-50.00;-49.00;-48.00;-47.00;-46.00;-45.00;-44.00;-43.00;-42.00;-41.00;-40.00;-39.00;-38.00;-37.00;-36.00;-35.00;-34.00;-33.00;-32.00;-31.00;-30.00;-29.00;-28.00;-27.00;-26.00;-25.00;-24.00;-23.00;-22.00;-21.00;-20.00;-19.00;-18.00;-17.00;-16.00;-15.00;-14.00;-13.00;-12.00;-11.00;-10.00;-9.00;-8.00;-7.00;-6.00;-5.00;-4.00;-3.00;-2.00;-1.00;0.00;1.00;2.00;3.00;4.00;5.00;6.00;7.00;8.00;9.00;10.00;11.00;12.00;13.00;14.00;15.00;16.00;17.00;18.00;19.00;20.00;21.00;22.00;23.00;24.00;25.00;26.00;27.00;28.00;29.00;30.00;31.00;32.00;33.00;34.00;35.00;36.00;37.00;38.00;39.00;40.00;41.00;42.00;43.00;44.00;45.00;46.00;47.00;48.00;49.00;50.00;51.00;52.00;53.00;54.00;55.00;56.00;57.00;58.00;59.00;60.00;61.00;62.00;63.00;64.00;65.00;66.00;67.00;68.00;69.00;70.00;71.00;72.00;73.00;74.00;75.00;76.00;77.00;78.00;79.00;80.00;81.00;82.00;83.00;84.00;85.00;86.00;87.00;88.00;89.00;90.00;91.00;92.00;93.00;94.00;95.00;96.00;97.00;98.00;99.00;100.00;101.00;102.00;103.00;104.00;105.00;106.00;107.00;108.00;109.00;110.00;111.00;112.00;113.00;114.00;115.00;116.00;117.00;118.00;119.00;120.00;
		REF_OVERSCAN_FACTOR=1.00
		SCAN_CURVETYPE=CROSSPLANE_PROFILE
		SCAN_DEPTH=200.00
		SCAN_OFFAXIS_INPLANE=0.00
		SCAN_OFFAXIS_CROSSPLANE=0.00
		SCAN_ANGLE=0.00
		SCAN_DIAGONAL=NOT_DIAGONAL
		SCAN_DIRECTION=POSITIVE
		MEAS_MEDIUM=WATER
		MEAS_PRESET=MEAS_CONTINUOUS_REFERENCE_SCAN
		MEAS_TIME=0.500
		MEAS_UNIT=A.U.
		PRESSURE=1005.65
		TEMPERATURE=22.26
		NORM_TEMPERATURE=20.00
		CORRECTION_FACTOR=1.0000
		EXPECTED_MAX_DOSE_RATE=3.00
		EPOM_DEPTH_SHIFT=0.0
		EPOM_MODE=TRUFIX
		BEGIN_DATA
			-121.00		4.7843E-03		14.261E+00
			-120.00		4.8280E-03		14.258E+00
			-119.00		4.9786E-03		14.255E+00
			-118.00		5.0417E-03		14.258E+00
			-117.00		5.1507E-03		14.252E+00
			-116.00		5.2328E-03		14.261E+00
			-115.00		5.3194E-03		14.258E+00
			-114.00		5.4037E-03		14.261E+00
			-113.00		5.5116E-03		14.258E+00
			-112.00		5.6386E-03		14.261E+00
			-111.00		5.7479E-03		14.255E+00
			-110.00		5.8736E-03		14.261E+00
			-109.00		5.9603E-03		14.258E+00
			-108.00		6.0684E-03		14.255E+00
			-107.00		6.2166E-03		14.258E+00
			-106.00		6.3448E-03		14.258E+00
			-105.00		6.4530E-03		14.255E+00
			-104.00		6.6026E-03		14.255E+00
			-103.00		6.7080E-03		14.258E+00
			-102.00		6.8604E-03		14.252E+00
			-101.00		6.9459E-03		14.252E+00
			-100.00		7.0726E-03		14.255E+00
			-99.00		7.2009E-03		14.255E+00
			-98.00		7.3932E-03		14.255E+00
			-97.00		7.5214E-03		14.255E+00
			-96.00		7.6298E-03		14.252E+00
			-95.00		7.8188E-03		14.258E+00
			-94.00		7.9932E-03		14.252E+00
			-93.00		8.1803E-03		14.261E+00
			-92.00		8.3333E-03		14.255E+00
			-91.00		8.5061E-03		14.252E+00
			-90.00		8.6966E-03		14.255E+00
			-89.00		8.9354E-03		14.249E+00
			-88.00		9.0637E-03		14.249E+00
			-87.00		9.2949E-03		14.255E+00
			-86.00		9.5106E-03		14.252E+00
			-85.00		9.7436E-03		14.255E+00
			-84.00		9.8974E-03		14.249E+00
			-83.00		10.043E-03		14.255E+00
			-82.00		10.370E-03		14.246E+00
			-81.00		10.665E-03		14.252E+00
			-80.00		10.838E-03		14.249E+00
			-79.00		11.142E-03		14.243E+00
			-78.00		11.391E-03		14.252E+00
			-77.00		11.667E-03		14.255E+00
			-76.00		12.016E-03		14.246E+00
			-75.00		12.292E-03		14.249E+00
			-74.00		12.583E-03		14.258E+00
			-73.00		12.967E-03		14.258E+00
			-72.00		13.221E-03		14.261E+00
			-71.00		13.630E-03		14.258E+00
			-70.00		13.929E-03		14.258E+00
			-69.00		14.249E-03		14.258E+00
			-68.00		14.685E-03		14.270E+00
			-67.00		15.125E-03		14.258E+00
			-66.00		15.463E-03		14.261E+00
			-65.00		15.915E-03		14.258E+00
			-64.00		16.467E-03		14.261E+00
			-63.00		16.855E-03		14.258E+00
			-62.00		17.368E-03		14.258E+00
			-61.00		17.906E-03		14.255E+00
			-60.00		18.500E-03		14.258E+00
			-59.00		19.034E-03		14.258E+00
			-58.00		19.701E-03		14.255E+00
			-57.00		20.316E-03		14.258E+00
			-56.00		21.116E-03		14.252E+00
			-55.00		21.914E-03		14.261E+00
			-54.00		22.870E-03		14.264E+00
			-53.00		23.974E-03		14.255E+00
			-52.00		25.358E-03		14.258E+00
			-51.00		27.131E-03		14.258E+00
			-50.00		29.558E-03		14.252E+00
			-49.00		33.048E-03		14.258E+00
			-48.00		38.654E-03		14.255E+00
			-47.00		47.543E-03		14.255E+00
			-46.00		60.372E-03		14.258E+00
			-45.00		77.068E-03		14.252E+00
			-44.00		96.368E-03		14.255E+00
			-43.00		115.73E-03		14.252E+00
			-42.00		133.56E-03		14.258E+00
			-41.00		147.35E-03		14.261E+00
			-40.00		157.44E-03		14.264E+00
			-39.00		164.23E-03		14.255E+00
			-38.00		168.60E-03		14.252E+00
			-37.00		171.74E-03		14.249E+00
			-36.00		173.56E-03		14.261E+00
			-35.00		175.63E-03		14.246E+00
			-34.00		176.84E-03		14.255E+00
			-33.00		178.13E-03		14.261E+00
			-32.00		179.24E-03		14.258E+00
			-31.00		180.32E-03		14.252E+00
			-30.00		181.15E-03		14.255E+00
			-29.00		181.91E-03		14.258E+00
			-28.00		182.88E-03		14.255E+00
			-27.00		183.74E-03		14.258E+00
			-26.00		184.54E-03		14.249E+00
			-25.00		185.06E-03		14.255E+00
			-24.00		186.00E-03		14.252E+00
			-23.00		186.33E-03		14.261E+00
			-22.00		187.06E-03		14.246E+00
			-21.00		187.74E-03		14.258E+00
			-20.00		188.24E-03		14.243E+00
			-19.00		188.65E-03		14.255E+00
			-18.00		188.95E-03		14.255E+00
			-17.00		189.79E-03		14.255E+00
			-16.00		190.23E-03		14.246E+00
			-15.00		190.66E-03		14.252E+00
			-14.00		190.98E-03		14.246E+00
			-13.00		191.43E-03		14.252E+00
			-12.00		191.52E-03		14.252E+00
			-11.00		192.10E-03		14.258E+00
			-10.00		192.29E-03		14.258E+00
			-9.00		192.52E-03		14.258E+00
			-8.00		192.52E-03		14.261E+00
			-7.00		192.91E-03		14.258E+00
			-6.00		193.08E-03		14.261E+00
			-5.00		193.10E-03		14.258E+00
			-4.00		193.36E-03		14.267E+00
			-3.00		193.54E-03		14.249E+00
			-2.00		193.70E-03		14.264E+00
			-1.00		193.42E-03		14.258E+00
			0.00		193.59E-03		14.264E+00
			1.00		193.55E-03		14.264E+00
			2.00		193.65E-03		14.252E+00
			3.00		193.44E-03		14.249E+00
			4.00		193.51E-03		14.261E+00
			5.00		193.23E-03		14.258E+00
			6.00		193.23E-03		14.255E+00
			7.00		192.93E-03		14.258E+00
			8.00		192.50E-03		14.261E+00
			9.00		192.48E-03		14.255E+00
			10.00		192.31E-03		14.252E+00
			11.00		191.92E-03		14.252E+00
			12.00		191.64E-03		14.252E+00
			13.00		191.39E-03		14.249E+00
			14.00		191.32E-03		14.255E+00
			15.00		190.47E-03		14.255E+00
			16.00		190.15E-03		14.255E+00
			17.00		189.59E-03		14.252E+00
			18.00		189.48E-03		14.249E+00
			19.00		188.82E-03		14.249E+00
			20.00		187.89E-03		14.258E+00
			21.00		187.67E-03		14.258E+00
			22.00		187.09E-03		14.249E+00
			23.00		186.47E-03		14.252E+00
			24.00		185.98E-03		14.255E+00
			25.00		185.41E-03		14.255E+00
			26.00		184.49E-03		14.261E+00
			27.00		183.83E-03		14.258E+00
			28.00		182.86E-03		14.252E+00
			29.00		182.12E-03		14.255E+00
			30.00		181.03E-03		14.258E+00
			31.00		180.22E-03		14.258E+00
			32.00		179.20E-03		14.261E+00
			33.00		178.10E-03		14.255E+00
			34.00		176.67E-03		14.255E+00
			35.00		175.27E-03		14.252E+00
			36.00		173.42E-03		14.255E+00
			37.00		170.79E-03		14.255E+00
			38.00		167.26E-03		14.252E+00
			39.00		161.96E-03		14.261E+00
			40.00		154.29E-03		14.246E+00
			41.00		143.28E-03		14.252E+00
			42.00		128.09E-03		14.246E+00
			43.00		110.06E-03		14.255E+00
			44.00		90.781E-03		14.240E+00
			45.00		72.012E-03		14.246E+00
			46.00		56.242E-03		14.249E+00
			47.00		44.433E-03		14.252E+00
			48.00		36.634E-03		14.243E+00
			49.00		31.859E-03		14.255E+00
			50.00		28.825E-03		14.255E+00
			51.00		26.672E-03		14.252E+00
			52.00		25.160E-03		14.249E+00
			53.00		23.921E-03		14.261E+00
			54.00		22.778E-03		14.255E+00
			55.00		21.897E-03		14.258E+00
			56.00		21.064E-03		14.258E+00
			57.00		20.303E-03		14.252E+00
			58.00		19.675E-03		14.258E+00
			59.00		19.000E-03		14.252E+00
			60.00		18.424E-03		14.267E+00
			61.00		17.920E-03		14.261E+00
			62.00		17.471E-03		14.261E+00
			63.00		16.880E-03		14.255E+00
			64.00		16.435E-03		14.252E+00
			65.00		15.958E-03		14.258E+00
			66.00		15.501E-03		14.246E+00
			67.00		15.079E-03		14.261E+00
			68.00		14.676E-03		14.258E+00
			69.00		14.359E-03		14.255E+00
			70.00		14.011E-03		14.261E+00
			71.00		13.574E-03		14.249E+00
			72.00		13.269E-03		14.255E+00
			73.00		12.906E-03		14.255E+00
			74.00		12.612E-03		14.249E+00
			75.00		12.268E-03		14.252E+00
			76.00		12.016E-03		14.246E+00
			77.00		11.757E-03		14.249E+00
			78.00		11.458E-03		14.249E+00
			79.00		11.197E-03		14.255E+00
			80.00		10.904E-03		14.246E+00
			81.00		10.660E-03		14.258E+00
			82.00		10.430E-03		14.252E+00
			83.00		10.192E-03		14.255E+00
			84.00		9.9338E-03		14.258E+00
			85.00		9.7009E-03		14.255E+00
			86.00		9.4892E-03		14.252E+00
			87.00		9.2755E-03		14.252E+00
			88.00		9.1045E-03		14.252E+00
			89.00		8.9103E-03		14.255E+00
			90.00		8.7022E-03		14.246E+00
			91.00		8.5434E-03		14.261E+00
			92.00		8.3333E-03		14.255E+00
			93.00		8.1589E-03		14.261E+00
			94.00		8.0145E-03		14.252E+00
			95.00		7.8846E-03		14.255E+00
			96.00		7.7367E-03		14.252E+00
			97.00		7.5427E-03		14.255E+00
			98.00		7.4786E-03		14.255E+00
			99.00		7.2879E-03		14.252E+00
			100.00		7.1612E-03		14.249E+00
			101.00		7.0269E-03		14.261E+00
			102.00		6.8391E-03		14.252E+00
			103.00		6.7279E-03		14.261E+00
			104.00		6.5626E-03		14.249E+00
			105.00		6.4744E-03		14.255E+00
			106.00		6.3302E-03		14.243E+00
			107.00		6.2406E-03		14.252E+00
			108.00		6.1377E-03		14.243E+00
			109.00		5.9654E-03		14.246E+00
			110.00		5.8798E-03		14.246E+00
			111.00		5.7931E-03		14.249E+00
			112.00		5.6221E-03		14.249E+00
			113.00		5.5567E-03		14.252E+00
			114.00		5.5140E-03		14.252E+00
			115.00		5.3869E-03		14.249E+00
			116.00		5.2148E-03		14.252E+00
			117.00		5.1698E-03		14.258E+00
			118.00		5.1068E-03		14.255E+00
			119.00		5.0182E-03		14.264E+00
			120.00		4.9551E-03		14.261E+00
			121.00		4.8077E-03		14.255E+00
		END_DATA
	END_SCAN  8
	BEGIN_SCAN  9
		TASK_NAME=tba PDD Profiles
		PROGRAM=WaterTankScans
		MEAS_DATE=10-Dec-2023 13:07:19
		LINAC=Ethos1
		MODALITY=X
		ISOCENTER=1000.00
		INPLANE_AXIS=InplaneGT
		CROSSPLANE_AXIS=CrossplAB
		DEPTH_AXIS=Depth
		INPLANE_AXIS_DIR=GUN_TARGET
		CROSSPLANE_AXIS_DIR=LEFT_RIGHT
		DEPTH_AXIS_DIR=UP_DOWN
		ENERGY=6.00
		NOMINAL_DMAX=13.00
		SSD=900.00
		BLOCK=0
		WEDGE_ANGLE=0.00
		FIELD_INPLANE=80.00
		FIELD_CROSSPLANE=80.00
		FIELD_TYPE=RECTANGULAR
		GANTRY=0.00
		GANTRY_UPRIGHT_POSITION=0
		GANTRY_ROTATION=CW
		COLL_ANGLE=0.00
		COLL_OFFSET_INPLANE=0.00
		COLL_OFFSET_CROSSPLANE=0.00
		SCAN_DEVICE=BeamScan
		SCAN_DEVICE_SETUP=BARA_GUN_TARGET
		ELECTROMETER=BeamScan
		RANGE_FIELD=LOW
		RANGE_REFERENCE=LOW
		DETECTOR=THIMBLE_CHAMBER
		DETECTOR_SUBCODE=SEMIFLEX
		DETECTOR_RADIUS=2.40
		DETECTOR_NAME=PTW 31021 Semiflex 3D 668
		DETECTOR_SN=144668
		DETECTOR_CALIBRATION=500000000.00
		DETECTOR_IS_CALIBRATED=1
		DETECTOR_REFERENCE=THIMBLE_CHAMBER
		DETECTOR_REFERENCE_SUBCODE=SEMIFLEX
		DETECTOR_REFERENCE_RADIUS=2.40
		DETECTOR_REFERENCE_NAME=PTW 31021 Semiflex 3D 669
		DETECTOR_REFERENCE_SN=144669
		DETECTOR_REFERENCE_IS_CALIBRATED=0
		DETECTOR_REFERENCE_CALIBRATION=500000000.00
		DETECTOR_HV=400.0
		DETECTOR_REFERENCE_HV=400.0
		DETECTOR_ORIENTATION=HORIZONTAL
		FILTER=FFF
		SCAN_SPEED_PROFILE=2.00
		SCAN_PROF_SPEED_DEP=NONE
		SCAN_SPEED_PDD=2.00
		SCAN_PDD_SPEED_DEP=NONE
		DETECTOR_TYPE=T31021
		REF_FIELD_DEPTH=100.00
		REF_FIELD_DEFINED=ISOCENTER
		REF_FIELD_INPLANE=100.00
		REF_FIELD_CROSSPLANE=100.00
		REF_SCAN_POSITIONS=-120.00;-119.00;-118.00;-117.00;-116.00;-115.00;-114.00;-113.00;-112.00;-111.00;-110.00;-109.00;-108.00;-107.00;-106.00;-105.00;-104.00;-103.00;-102.00;-101.00;-100.00;-99.00;-98.00;-97.00;-96.00;-95.00;-94.00;-93.00;-92.00;-91.00;-90.00;-89.00;-88.00;-87.00;-86.00;-85.00;-84.00;-83.00;-82.00;-81.00;-80.00;-79.00;-78.00;-77.00;-76.00;-75.00;-74.00;-73.00;-72.00;-71.00;-70.00;-69.00;-68.00;-67.00;-66.00;-65.00;-64.00;-63.00;-62.00;-61.00;-60.00;-59.00;-58.00;-57.00;-56.00;-55.00;-54.00;-53.00;-52.00;-51.00;-50.00;-49.00;-48.00;-47.00;-46.00;-45.00;-44.00;-43.00;-42.00;-41.00;-40.00;-39.00;-38.00;-37.00;-36.00;-35.00;-34.00;-33.00;-32.00;-31.00;-30.00;-29.00;-28.00;-27.00;-26.00;-25.00;-24.00;-23.00;-22.00;-21.00;-20.00;-19.00;-18.00;-17.00;-16.00;-15.00;-14.00;-13.00;-12.00;-11.00;-10.00;-9.00;-8.00;-7.00;-6.00;-5.00;-4.00;-3.00;-2.00;-1.00;0.00;1.00;2.00;3.00;4.00;5.00;6.00;7.00;8.00;9.00;10.00;11.00;12.00;13.00;14.00;15.00;16.00;17.00;18.00;19.00;20.00;21.00;22.00;23.00;24.00;25.00;26.00;27.00;28.00;29.00;30.00;31.00;32.00;33.00;34.00;35.00;36.00;37.00;38.00;39.00;40.00;41.00;42.00;43.00;44.00;45.00;46.00;47.00;48.00;49.00;50.00;51.00;52.00;53.00;54.00;55.00;56.00;57.00;58.00;59.00;60.00;61.00;62.00;63.00;64.00;65.00;66.00;67.00;68.00;69.00;70.00;71.00;72.00;73.00;74.00;75.00;76.00;77.00;78.00;79.00;80.00;81.00;82.00;83.00;84.00;85.00;86.00;87.00;88.00;89.00;90.00;91.00;92.00;93.00;94.00;95.00;96.00;97.00;98.00;99.00;100.00;101.00;102.00;103.00;104.00;105.00;106.00;107.00;108.00;109.00;110.00;111.00;112.00;113.00;114.00;115.00;116.00;117.00;118.00;119.00;120.00;
		REF_OVERSCAN_FACTOR=1.00
		SCAN_CURVETYPE=INPLANE_PROFILE
		SCAN_DEPTH=300.00
		SCAN_OFFAXIS_INPLANE=0.00
		SCAN_OFFAXIS_CROSSPLANE=0.00
		SCAN_ANGLE=0.00
		SCAN_DIAGONAL=NOT_DIAGONAL
		SCAN_DIRECTION=POSITIVE
		MEAS_MEDIUM=WATER
		MEAS_PRESET=MEAS_CONTINUOUS_REFERENCE_SCAN
		MEAS_TIME=0.500
		MEAS_UNIT=A.U.
		PRESSURE=1005.77
		TEMPERATURE=22.27
		NORM_TEMPERATURE=20.00
		CORRECTION_FACTOR=1.0000
		EXPECTED_MAX_DOSE_RATE=3.00
		EPOM_DEPTH_SHIFT=0.0
		EPOM_MODE=TRUFIX
		BEGIN_DATA
			-132.00		3.3974E-03		14.254E+00
			-131.00		3.4188E-03		14.254E+00
			-130.00		3.5073E-03		14.242E+00
			-129.00		3.5478E-03		14.251E+00
			-128.00		3.6340E-03		14.248E+00
			-127.00		3.6531E-03		14.257E+00
			-126.00		3.7179E-03		14.254E+00
			-125.00		3.7607E-03		14.254E+00
			-124.00		3.8256E-03		14.251E+00
			-123.00		3.8889E-03		14.254E+00
			-122.00		3.9513E-03		14.260E+00
			-121.00		4.0393E-03		14.251E+00
			-120.00		4.0598E-03		14.254E+00
			-119.00		4.1453E-03		14.254E+00
			-118.00		4.2094E-03		14.254E+00
			-117.00		4.2540E-03		14.248E+00
			-116.00		4.3599E-03		14.251E+00
			-115.00		4.4240E-03		14.251E+00
			-114.00		4.5076E-03		14.257E+00
			-113.00		4.5726E-03		14.254E+00
			-112.00		4.6397E-03		14.245E+00
			-111.00		4.7019E-03		14.251E+00
			-110.00		4.7894E-03		14.245E+00
			-109.00		4.8942E-03		14.251E+00
			-108.00		4.9187E-03		14.242E+00
			-107.00		5.0652E-03		14.251E+00
			-106.00		5.1134E-03		14.236E+00
			-105.00		5.2350E-03		14.254E+00
			-104.00		5.2609E-03		14.242E+00
			-103.00		5.4297E-03		14.248E+00
			-102.00		5.4534E-03		14.242E+00
			-101.00		5.6007E-03		14.248E+00
			-100.00		5.6636E-03		14.251E+00
			-99.00		5.8132E-03		14.251E+00
			-98.00		5.9389E-03		14.257E+00
			-97.00		5.9829E-03		14.254E+00
			-96.00		6.1098E-03		14.257E+00
			-95.00		6.2393E-03		14.254E+00
			-94.00		6.2980E-03		14.266E+00
			-93.00		6.4943E-03		14.257E+00
			-92.00		6.5343E-03		14.263E+00
			-91.00		6.7094E-03		14.254E+00
			-90.00		6.8318E-03		14.266E+00
			-89.00		6.8973E-03		14.263E+00
			-88.00		7.1169E-03		14.251E+00
			-87.00		7.2238E-03		14.251E+00
			-86.00		7.3702E-03		14.257E+00
			-85.00		7.5443E-03		14.251E+00
			-84.00		7.6282E-03		14.254E+00
			-83.00		7.8436E-03		14.251E+00
			-82.00		8.0145E-03		14.251E+00
			-81.00		8.1659E-03		14.248E+00
			-80.00		8.2906E-03		14.254E+00
			-79.00		8.4615E-03		14.254E+00
			-78.00		8.7393E-03		14.254E+00
			-77.00		8.8694E-03		14.251E+00
			-76.00		9.0831E-03		14.251E+00
			-75.00		9.2541E-03		14.251E+00
			-74.00		9.4465E-03		14.251E+00
			-73.00		9.6347E-03		14.257E+00
			-72.00		9.9188E-03		14.248E+00
			-71.00		10.128E-03		14.254E+00
			-70.00		10.389E-03		14.248E+00
			-69.00		10.601E-03		14.251E+00
			-68.00		10.855E-03		14.254E+00
			-67.00		11.047E-03		14.254E+00
			-66.00		11.370E-03		14.251E+00
			-65.00		11.648E-03		14.251E+00
			-64.00		11.947E-03		14.251E+00
			-63.00		12.244E-03		14.254E+00
			-62.00		12.545E-03		14.251E+00
			-61.00		12.890E-03		14.248E+00
			-60.00		13.251E-03		14.251E+00
			-59.00		13.702E-03		14.248E+00
			-58.00		14.148E-03		14.251E+00
			-57.00		14.686E-03		14.248E+00
			-56.00		15.321E-03		14.254E+00
			-55.00		16.186E-03		14.245E+00
			-54.00		17.162E-03		14.251E+00
			-53.00		18.491E-03		14.248E+00
			-52.00		20.628E-03		14.248E+00
			-51.00		23.937E-03		14.251E+00
			-50.00		28.843E-03		14.245E+00
			-49.00		35.649E-03		14.251E+00
			-48.00		44.311E-03		14.242E+00
			-47.00		53.910E-03		14.254E+00
			-46.00		63.751E-03		14.242E+00
			-45.00		72.207E-03		14.257E+00
			-44.00		79.059E-03		14.239E+00
			-43.00		83.803E-03		14.254E+00
			-42.00		87.331E-03		14.233E+00
			-41.00		89.442E-03		14.251E+00
			-40.00		91.144E-03		14.239E+00
			-39.00		92.240E-03		14.248E+00
			-38.00		93.312E-03		14.254E+00
			-37.00		93.996E-03		14.254E+00
			-36.00		94.678E-03		14.251E+00
			-35.00		95.064E-03		14.254E+00
			-34.00		95.684E-03		14.254E+00
			-33.00		96.153E-03		14.251E+00
			-32.00		96.689E-03		14.257E+00
			-31.00		97.158E-03		14.251E+00
			-30.00		97.500E-03		14.254E+00
			-29.00		97.926E-03		14.248E+00
			-28.00		98.314E-03		14.269E+00
			-27.00		98.845E-03		14.242E+00
			-26.00		99.060E-03		14.263E+00
			-25.00		99.444E-03		14.251E+00
			-24.00		99.615E-03		14.257E+00
			-23.00		99.957E-03		14.248E+00
			-22.00		100.36E-03		14.245E+00
			-21.00		100.41E-03		14.251E+00
			-20.00		100.81E-03		14.251E+00
			-19.00		100.98E-03		14.257E+00
			-18.00		101.37E-03		14.242E+00
			-17.00		101.50E-03		14.248E+00
			-16.00		101.73E-03		14.248E+00
			-15.00		101.92E-03		14.248E+00
			-14.00		102.27E-03		14.248E+00
			-13.00		102.42E-03		14.251E+00
			-12.00		102.42E-03		14.248E+00
			-11.00		102.71E-03		14.251E+00
			-10.00		102.67E-03		14.251E+00
			-9.00		102.86E-03		14.248E+00
			-8.00		102.88E-03		14.254E+00
			-7.00		103.01E-03		14.251E+00
			-6.00		103.14E-03		14.245E+00
			-5.00		103.16E-03		14.251E+00
			-4.00		103.06E-03		14.254E+00
			-3.00		103.31E-03		14.248E+00
			-2.00		103.21E-03		14.251E+00
			-1.00		103.12E-03		14.248E+00
			0.00		103.40E-03		14.248E+00
			1.00		103.23E-03		14.245E+00
			2.00		103.29E-03		14.251E+00
			3.00		103.44E-03		14.251E+00
			4.00		103.25E-03		14.251E+00
			5.00		103.16E-03		14.251E+00
			6.00		103.10E-03		14.254E+00
			7.00		102.97E-03		14.248E+00
			8.00		102.93E-03		14.248E+00
			9.00		102.95E-03		14.245E+00
			10.00		102.82E-03		14.248E+00
			11.00		102.56E-03		14.254E+00
			12.00		102.48E-03		14.245E+00
			13.00		102.20E-03		14.248E+00
			14.00		102.14E-03		14.248E+00
			15.00		101.86E-03		14.251E+00
			16.00		101.60E-03		14.242E+00
			17.00		101.47E-03		14.251E+00
			18.00		101.18E-03		14.239E+00
			19.00		100.92E-03		14.248E+00
			20.00		100.73E-03		14.236E+00
			21.00		100.60E-03		14.245E+00
			22.00		100.36E-03		14.239E+00
			23.00		100.11E-03		14.239E+00
			24.00		99.808E-03		14.242E+00
			25.00		99.615E-03		14.248E+00
			26.00		99.273E-03		14.251E+00
			27.00		98.846E-03		14.254E+00
			28.00		98.440E-03		14.251E+00
			29.00		98.247E-03		14.245E+00
			30.00		97.735E-03		14.254E+00
			31.00		97.349E-03		14.245E+00
			32.00		96.925E-03		14.263E+00
			33.00		96.411E-03		14.257E+00
			34.00		96.198E-03		14.260E+00
			35.00		95.661E-03		14.251E+00
			36.00		95.064E-03		14.254E+00
			37.00		94.507E-03		14.251E+00
			38.00		93.845E-03		14.251E+00
			39.00		93.051E-03		14.245E+00
			40.00		92.222E-03		14.254E+00
			41.00		91.214E-03		14.248E+00
			42.00		89.720E-03		14.251E+00
			43.00		87.540E-03		14.251E+00
			44.00		84.206E-03		14.251E+00
			45.00		79.217E-03		14.245E+00
			46.00		71.838E-03		14.254E+00
			47.00		63.189E-03		14.248E+00
			48.00		53.131E-03		14.251E+00
			49.00		43.468E-03		14.245E+00
			50.00		34.873E-03		14.245E+00
			51.00		28.196E-03		14.248E+00
			52.00		23.387E-03		14.260E+00
			53.00		20.346E-03		14.251E+00
			54.00		18.359E-03		14.251E+00
			55.00		16.952E-03		14.248E+00
			56.00		15.968E-03		14.248E+00
			57.00		15.263E-03		14.248E+00
			58.00		14.640E-03		14.251E+00
			59.00		14.191E-03		14.251E+00
			60.00		13.678E-03		14.251E+00
			61.00		13.278E-03		14.245E+00
			62.00		12.885E-03		14.254E+00
			63.00		12.548E-03		14.248E+00
			64.00		12.198E-03		14.257E+00
			65.00		11.885E-03		14.248E+00
			66.00		11.610E-03		14.245E+00
			67.00		11.308E-03		14.248E+00
			68.00		11.009E-03		14.248E+00
			69.00		10.750E-03		14.251E+00
			70.00		10.517E-03		14.248E+00
			71.00		10.239E-03		14.248E+00
			72.00		10.026E-03		14.248E+00
			73.00		9.8312E-03		14.251E+00
			74.00		9.5767E-03		14.248E+00
			75.00		9.3803E-03		14.254E+00
			76.00		9.2114E-03		14.251E+00
			77.00		8.9996E-03		14.248E+00
			78.00		8.8109E-03		14.242E+00
			79.00		8.6362E-03		14.248E+00
			80.00		8.4278E-03		14.239E+00
			81.00		8.3120E-03		14.254E+00
			82.00		8.1087E-03		14.236E+00
			83.00		7.9521E-03		14.248E+00
			84.00		7.7647E-03		14.239E+00
			85.00		7.6512E-03		14.251E+00
			86.00		7.4834E-03		14.245E+00
			87.00		7.3489E-03		14.257E+00
			88.00		7.2253E-03		14.248E+00
			89.00		7.0757E-03		14.248E+00
			90.00		6.9032E-03		14.251E+00
			91.00		6.8177E-03		14.251E+00
			92.00		6.6467E-03		14.251E+00
			93.00		6.5626E-03		14.248E+00
			94.00		6.4061E-03		14.263E+00
			95.00		6.3475E-03		14.251E+00
			96.00		6.1939E-03		14.260E+00
			97.00		6.0710E-03		14.248E+00
			98.00		6.0004E-03		14.263E+00
			99.00		5.8786E-03		14.248E+00
			100.00		5.7918E-03		14.251E+00
			101.00		5.6825E-03		14.257E+00
			102.00		5.5793E-03		14.248E+00
			103.00		5.4961E-03		14.242E+00
			104.00		5.3667E-03		14.245E+00
			105.00		5.2339E-03		14.257E+00
			106.00		5.2384E-03		14.245E+00
			107.00		5.0887E-03		14.245E+00
			108.00		5.0021E-03		14.248E+00
			109.00		4.9370E-03		14.251E+00
			110.00		4.8942E-03		14.251E+00
			111.00		4.7884E-03		14.248E+00
			112.00		4.7039E-03		14.245E+00
			113.00		4.6164E-03		14.251E+00
			114.00		4.5319E-03		14.248E+00
			115.00		4.4696E-03		14.242E+00
			116.00		4.4026E-03		14.251E+00
			117.00		4.3181E-03		14.248E+00
			118.00		4.2762E-03		14.245E+00
			119.00		4.2317E-03		14.251E+00
			120.00		4.1471E-03		14.248E+00
			121.00		4.0829E-03		14.248E+00
			122.00		4.0188E-03		14.248E+00
			123.00		3.9341E-03		14.245E+00
			124.00		3.8256E-03		14.251E+00
			125.00		3.8256E-03		14.251E+00
			126.00		3.7433E-03		14.239E+00
			127.00		3.6538E-03		14.254E+00
			128.00		3.6333E-03		14.251E+00
			129.00		3.5691E-03		14.251E+00
			130.00		3.5256E-03		14.254E+00
			131.00		3.4630E-03		14.248E+00
			132.00		3.3768E-03		14.251E+00
		END_DATA
	END_SCAN  9
	BEGIN_SCAN  10
		TASK_NAME=tba PDD Profiles
		PROGRAM=WaterTankScans
		MEAS_DATE=10-Dec-2023 13:09:44
		LINAC=Ethos1
		MODALITY=X
		ISOCENTER=1000.00
		INPLANE_AXIS=InplaneGT
		CROSSPLANE_AXIS=CrossplAB
		DEPTH_AXIS=Depth
		INPLANE_AXIS_DIR=GUN_TARGET
		CROSSPLANE_AXIS_DIR=LEFT_RIGHT
		DEPTH_AXIS_DIR=UP_DOWN
		ENERGY=6.00
		NOMINAL_DMAX=13.00
		SSD=900.00
		BLOCK=0
		WEDGE_ANGLE=0.00
		FIELD_INPLANE=80.00
		FIELD_CROSSPLANE=80.00
		FIELD_TYPE=RECTANGULAR
		GANTRY=0.00
		GANTRY_UPRIGHT_POSITION=0
		GANTRY_ROTATION=CW
		COLL_ANGLE=0.00
		COLL_OFFSET_INPLANE=0.00
		COLL_OFFSET_CROSSPLANE=0.00
		SCAN_DEVICE=BeamScan
		SCAN_DEVICE_SETUP=BARA_GUN_TARGET
		ELECTROMETER=BeamScan
		RANGE_FIELD=LOW
		RANGE_REFERENCE=LOW
		DETECTOR=THIMBLE_CHAMBER
		DETECTOR_SUBCODE=SEMIFLEX
		DETECTOR_RADIUS=2.40
		DETECTOR_NAME=PTW 31021 Semiflex 3D 668
		DETECTOR_SN=144668
		DETECTOR_CALIBRATION=500000000.00
		DETECTOR_IS_CALIBRATED=1
		DETECTOR_REFERENCE=THIMBLE_CHAMBER
		DETECTOR_REFERENCE_SUBCODE=SEMIFLEX
		DETECTOR_REFERENCE_RADIUS=2.40
		DETECTOR_REFERENCE_NAME=PTW 31021 Semiflex 3D 669
		DETECTOR_REFERENCE_SN=144669
		DETECTOR_REFERENCE_IS_CALIBRATED=0
		DETECTOR_REFERENCE_CALIBRATION=500000000.00
		DETECTOR_HV=400.0
		DETECTOR_REFERENCE_HV=400.0
		DETECTOR_ORIENTATION=HORIZONTAL
		FILTER=FFF
		SCAN_SPEED_PROFILE=2.00
		SCAN_PROF_SPEED_DEP=NONE
		SCAN_SPEED_PDD=2.00
		SCAN_PDD_SPEED_DEP=NONE
		DETECTOR_TYPE=T31021
		REF_FIELD_DEPTH=100.00
		REF_FIELD_DEFINED=ISOCENTER
		REF_FIELD_INPLANE=100.00
		REF_FIELD_CROSSPLANE=100.00
		REF_SCAN_POSITIONS=-120.00;-119.00;-118.00;-117.00;-116.00;-115.00;-114.00;-113.00;-112.00;-111.00;-110.00;-109.00;-108.00;-107.00;-106.00;-105.00;-104.00;-103.00;-102.00;-101.00;-100.00;-99.00;-98.00;-97.00;-96.00;-95.00;-94.00;-93.00;-92.00;-91.00;-90.00;-89.00;-88.00;-87.00;-86.00;-85.00;-84.00;-83.00;-82.00;-81.00;-80.00;-79.00;-78.00;-77.00;-76.00;-75.00;-74.00;-73.00;-72.00;-71.00;-70.00;-69.00;-68.00;-67.00;-66.00;-65.00;-64.00;-63.00;-62.00;-61.00;-60.00;-59.00;-58.00;-57.00;-56.00;-55.00;-54.00;-53.00;-52.00;-51.00;-50.00;-49.00;-48.00;-47.00;-46.00;-45.00;-44.00;-43.00;-42.00;-41.00;-40.00;-39.00;-38.00;-37.00;-36.00;-35.00;-34.00;-33.00;-32.00;-31.00;-30.00;-29.00;-28.00;-27.00;-26.00;-25.00;-24.00;-23.00;-22.00;-21.00;-20.00;-19.00;-18.00;-17.00;-16.00;-15.00;-14.00;-13.00;-12.00;-11.00;-10.00;-9.00;-8.00;-7.00;-6.00;-5.00;-4.00;-3.00;-2.00;-1.00;0.00;1.00;2.00;3.00;4.00;5.00;6.00;7.00;8.00;9.00;10.00;11.00;12.00;13.00;14.00;15.00;16.00;17.00;18.00;19.00;20.00;21.00;22.00;23.00;24.00;25.00;26.00;27.00;28.00;29.00;30.00;31.00;32.00;33.00;34.00;35.00;36.00;37.00;38.00;39.00;40.00;41.00;42.00;43.00;44.00;45.00;46.00;47.00;48.00;49.00;50.00;51.00;52.00;53.00;54.00;55.00;56.00;57.00;58.00;59.00;60.00;61.00;62.00;63.00;64.00;65.00;66.00;67.00;68.00;69.00;70.00;71.00;72.00;73.00;74.00;75.00;76.00;77.00;78.00;79.00;80.00;81.00;82.00;83.00;84.00;85.00;86.00;87.00;88.00;89.00;90.00;91.00;92.00;93.00;94.00;95.00;96.00;97.00;98.00;99.00;100.00;101.00;102.00;103.00;104.00;105.00;106.00;107.00;108.00;109.00;110.00;111.00;112.00;113.00;114.00;115.00;116.00;117.00;118.00;119.00;120.00;
		REF_OVERSCAN_FACTOR=1.00
		SCAN_CURVETYPE=CROSSPLANE_PROFILE
		SCAN_DEPTH=300.00
		SCAN_OFFAXIS_INPLANE=0.00
		SCAN_OFFAXIS_CROSSPLANE=0.00
		SCAN_ANGLE=0.00
		SCAN_DIAGONAL=NOT_DIAGONAL
		SCAN_DIRECTION=POSITIVE
		MEAS_MEDIUM=WATER
		MEAS_PRESET=MEAS_CONTINUOUS_REFERENCE_SCAN
		MEAS_TIME=0.500
		MEAS_UNIT=A.U.
		PRESSURE=1005.84
		TEMPERATURE=22.27
		NORM_TEMPERATURE=20.00
		CORRECTION_FACTOR=1.0000
		EXPECTED_MAX_DOSE_RATE=3.00
		EPOM_DEPTH_SHIFT=0.0
		EPOM_MODE=TRUFIX
		BEGIN_DATA
			-132.00		3.4387E-03		14.259E+00
			-131.00		3.4630E-03		14.247E+00
			-130.00		3.5249E-03		14.256E+00
			-129.00		3.5684E-03		14.253E+00
			-128.00		3.6523E-03		14.259E+00
			-127.00		3.6546E-03		14.250E+00
			-126.00		3.7369E-03		14.262E+00
			-125.00		3.8256E-03		14.250E+00
			-124.00		3.8675E-03		14.253E+00
			-123.00		3.9325E-03		14.250E+00
			-122.00		3.9983E-03		14.244E+00
			-121.00		4.0821E-03		14.250E+00
			-120.00		4.1248E-03		14.250E+00
			-119.00		4.1693E-03		14.244E+00
			-118.00		4.2308E-03		14.253E+00
			-117.00		4.3832E-03		14.244E+00
			-116.00		4.4036E-03		14.247E+00
			-115.00		4.4668E-03		14.250E+00
			-114.00		4.5309E-03		14.250E+00
			-113.00		4.6591E-03		14.250E+00
			-112.00		4.7039E-03		14.244E+00
			-111.00		4.7639E-03		14.256E+00
			-110.00		4.8515E-03		14.250E+00
			-109.00		4.9829E-03		14.241E+00
			-108.00		5.0663E-03		14.247E+00
			-107.00		5.1079E-03		14.250E+00
			-106.00		5.1956E-03		14.244E+00
			-105.00		5.2362E-03		14.250E+00
			-104.00		5.3678E-03		14.241E+00
			-103.00		5.5175E-03		14.241E+00
			-102.00		5.4938E-03		14.247E+00
			-101.00		5.6446E-03		14.244E+00
			-100.00		5.7717E-03		14.247E+00
			-99.00		5.8383E-03		14.241E+00
			-98.00		5.9842E-03		14.250E+00
			-97.00		6.0308E-03		14.241E+00
			-96.00		6.2259E-03		14.235E+00
			-95.00		6.3261E-03		14.250E+00
			-94.00		6.3903E-03		14.250E+00
			-93.00		6.5413E-03		14.247E+00
			-92.00		6.6310E-03		14.238E+00
			-91.00		6.7978E-03		14.247E+00
			-90.00		6.9474E-03		14.247E+00
			-89.00		7.0772E-03		14.244E+00
			-88.00		7.1841E-03		14.244E+00
			-87.00		7.3551E-03		14.244E+00
			-86.00		7.4620E-03		14.244E+00
			-85.00		7.6315E-03		14.247E+00
			-84.00		7.8239E-03		14.247E+00
			-83.00		7.9341E-03		14.241E+00
			-82.00		8.0821E-03		14.244E+00
			-81.00		8.2959E-03		14.244E+00
			-80.00		8.4260E-03		14.241E+00
			-79.00		8.6343E-03		14.250E+00
			-78.00		8.7933E-03		14.235E+00
			-77.00		8.9957E-03		14.253E+00
			-76.00		9.1959E-03		14.241E+00
			-75.00		9.3864E-03		14.244E+00
			-74.00		9.6043E-03		14.238E+00
			-73.00		9.8354E-03		14.244E+00
			-72.00		10.028E-03		14.244E+00
			-71.00		10.282E-03		14.247E+00
			-70.00		10.470E-03		14.253E+00
			-69.00		10.752E-03		14.247E+00
			-68.00		11.028E-03		14.250E+00
			-67.00		11.289E-03		14.244E+00
			-66.00		11.534E-03		14.259E+00
			-65.00		11.838E-03		14.253E+00
			-64.00		12.099E-03		14.247E+00
			-63.00		12.508E-03		14.244E+00
			-62.00		12.863E-03		14.253E+00
			-61.00		13.211E-03		14.247E+00
			-60.00		13.614E-03		14.250E+00
			-59.00		14.127E-03		14.250E+00
			-58.00		14.603E-03		14.244E+00
			-57.00		15.299E-03		14.253E+00
			-56.00		15.968E-03		14.247E+00
			-55.00		16.948E-03		14.250E+00
			-54.00		18.295E-03		14.250E+00
			-53.00		20.376E-03		14.244E+00
			-52.00		23.482E-03		14.241E+00
			-51.00		28.083E-03		14.250E+00
			-50.00		34.559E-03		14.250E+00
			-49.00		42.680E-03		14.250E+00
			-48.00		51.732E-03		14.247E+00
			-47.00		61.279E-03		14.244E+00
			-46.00		69.994E-03		14.250E+00
			-45.00		77.203E-03		14.241E+00
			-44.00		82.415E-03		14.253E+00
			-43.00		86.298E-03		14.247E+00
			-42.00		88.820E-03		14.247E+00
			-41.00		90.571E-03		14.244E+00
			-40.00		91.766E-03		14.241E+00
			-39.00		92.688E-03		14.244E+00
			-38.00		93.567E-03		14.250E+00
			-37.00		94.145E-03		14.253E+00
			-36.00		94.933E-03		14.244E+00
			-35.00		95.297E-03		14.247E+00
			-34.00		95.919E-03		14.253E+00
			-33.00		96.388E-03		14.250E+00
			-32.00		96.730E-03		14.250E+00
			-31.00		97.263E-03		14.244E+00
			-30.00		97.798E-03		14.244E+00
			-29.00		98.012E-03		14.250E+00
			-28.00		98.440E-03		14.250E+00
			-27.00		98.760E-03		14.244E+00
			-26.00		99.038E-03		14.247E+00
			-25.00		99.423E-03		14.247E+00
			-24.00		99.744E-03		14.253E+00
			-23.00		100.09E-03		14.247E+00
			-22.00		100.28E-03		14.244E+00
			-21.00		100.62E-03		14.247E+00
			-20.00		100.73E-03		14.241E+00
			-19.00		101.05E-03		14.250E+00
			-18.00		101.37E-03		14.235E+00
			-17.00		101.43E-03		14.247E+00
			-16.00		101.58E-03		14.235E+00
			-15.00		101.92E-03		14.250E+00
			-14.00		102.16E-03		14.235E+00
			-13.00		102.25E-03		14.244E+00
			-12.00		102.29E-03		14.244E+00
			-11.00		102.42E-03		14.250E+00
			-10.00		102.63E-03		14.247E+00
			-9.00		102.78E-03		14.250E+00
			-8.00		102.86E-03		14.247E+00
			-7.00		103.21E-03		14.241E+00
			-6.00		103.10E-03		14.253E+00
			-5.00		103.04E-03		14.247E+00
			-4.00		103.23E-03		14.256E+00
			-3.00		103.21E-03		14.250E+00
			-2.00		103.29E-03		14.259E+00
			-1.00		103.12E-03		14.250E+00
			0.00		103.16E-03		14.259E+00
			1.00		103.31E-03		14.250E+00
			2.00		103.31E-03		14.250E+00
			3.00		103.40E-03		14.253E+00
			4.00		103.29E-03		14.247E+00
			5.00		103.23E-03		14.244E+00
			6.00		103.12E-03		14.247E+00
			7.00		102.99E-03		14.250E+00
			8.00		102.84E-03		14.247E+00
			9.00		103.06E-03		14.241E+00
			10.00		102.76E-03		14.247E+00
			11.00		102.69E-03		14.256E+00
			12.00		102.54E-03		14.244E+00
			13.00		102.35E-03		14.238E+00
			14.00		102.18E-03		14.250E+00
			15.00		102.03E-03		14.244E+00
			16.00		101.78E-03		14.238E+00
			17.00		101.73E-03		14.244E+00
			18.00		101.54E-03		14.250E+00
			19.00		100.96E-03		14.256E+00
			20.00		100.90E-03		14.241E+00
			21.00		100.66E-03		14.247E+00
			22.00		100.30E-03		14.253E+00
			23.00		100.11E-03		14.244E+00
			24.00		99.850E-03		14.247E+00
			25.00		99.423E-03		14.250E+00
			26.00		99.273E-03		14.241E+00
			27.00		98.973E-03		14.241E+00
			28.00		98.589E-03		14.244E+00
			29.00		98.246E-03		14.241E+00
			30.00		97.841E-03		14.244E+00
			31.00		97.392E-03		14.247E+00
			32.00		96.836E-03		14.247E+00
			33.00		96.345E-03		14.250E+00
			34.00		96.044E-03		14.241E+00
			35.00		95.404E-03		14.247E+00
			36.00		94.870E-03		14.247E+00
			37.00		94.269E-03		14.241E+00
			38.00		93.584E-03		14.241E+00
			39.00		92.795E-03		14.244E+00
			40.00		91.595E-03		14.241E+00
			41.00		90.017E-03		14.247E+00
			42.00		88.003E-03		14.241E+00
			43.00		85.268E-03		14.244E+00
			44.00		81.023E-03		14.235E+00
			45.00		75.347E-03		14.244E+00
			46.00		67.872E-03		14.238E+00
			47.00		59.060E-03		14.253E+00
			48.00		49.690E-03		14.238E+00
			49.00		40.628E-03		14.250E+00
			50.00		32.856E-03		14.238E+00
			51.00		26.806E-03		14.247E+00
			52.00		22.690E-03		14.241E+00
			53.00		19.838E-03		14.247E+00
			54.00		18.110E-03		14.244E+00
			55.00		16.845E-03		14.247E+00
			56.00		15.897E-03		14.253E+00
			57.00		15.199E-03		14.247E+00
			58.00		14.609E-03		14.259E+00
			59.00		14.154E-03		14.244E+00
			60.00		13.672E-03		14.256E+00
			61.00		13.296E-03		14.247E+00
			62.00		12.903E-03		14.256E+00
			63.00		12.591E-03		14.247E+00
			64.00		12.308E-03		14.253E+00
			65.00		11.883E-03		14.250E+00
			66.00		11.586E-03		14.247E+00
			67.00		11.334E-03		14.241E+00
			68.00		11.056E-03		14.241E+00
			69.00		10.838E-03		14.247E+00
			70.00		10.577E-03		14.253E+00
			71.00		10.346E-03		14.247E+00
			72.00		10.088E-03		14.250E+00
			73.00		9.8802E-03		14.241E+00
			74.00		9.6684E-03		14.238E+00
			75.00		9.4719E-03		14.244E+00
			76.00		9.2620E-03		14.238E+00
			77.00		9.1084E-03		14.244E+00
			78.00		8.9003E-03		14.235E+00
			79.00		8.7022E-03		14.244E+00
			80.00		8.5702E-03		14.250E+00
			81.00		8.3351E-03		14.250E+00
			82.00		8.1659E-03		14.247E+00
			83.00		8.0411E-03		14.241E+00
			84.00		7.9077E-03		14.250E+00
			85.00		7.7450E-03		14.235E+00
			86.00		7.5476E-03		14.244E+00
			87.00		7.4423E-03		14.241E+00
			88.00		7.2926E-03		14.241E+00
			89.00		7.1612E-03		14.247E+00
			90.00		6.9887E-03		14.250E+00
			91.00		6.8862E-03		14.241E+00
			92.00		6.7579E-03		14.241E+00
			93.00		6.6695E-03		14.247E+00
			94.00		6.5413E-03		14.247E+00
			95.00		6.4144E-03		14.244E+00
			96.00		6.3075E-03		14.244E+00
			97.00		6.1979E-03		14.250E+00
			98.00		6.1137E-03		14.247E+00
			99.00		5.9867E-03		14.244E+00
			100.00		5.8773E-03		14.250E+00
			101.00		5.7943E-03		14.244E+00
			102.00		5.6459E-03		14.241E+00
			103.00		5.5389E-03		14.241E+00
			104.00		5.4748E-03		14.241E+00
			105.00		5.4071E-03		14.250E+00
			106.00		5.3025E-03		14.244E+00
			107.00		5.2384E-03		14.244E+00
			108.00		5.1551E-03		14.238E+00
			109.00		5.0887E-03		14.244E+00
			110.00		5.0064E-03		14.235E+00
			111.00		4.8963E-03		14.244E+00
			112.00		4.8363E-03		14.232E+00
			113.00		4.7660E-03		14.250E+00
			114.00		4.6845E-03		14.238E+00
			115.00		4.5950E-03		14.250E+00
			116.00		4.5357E-03		14.235E+00
			117.00		4.4687E-03		14.244E+00
			118.00		4.4026E-03		14.250E+00
			119.00		4.3190E-03		14.244E+00
			120.00		4.2326E-03		14.247E+00
			121.00		4.1898E-03		14.247E+00
			122.00		4.1034E-03		14.250E+00
			123.00		4.0411E-03		14.244E+00
			124.00		3.9744E-03		14.253E+00
			125.00		3.9128E-03		14.244E+00
			126.00		3.8659E-03		14.259E+00
			127.00		3.8059E-03		14.244E+00
			128.00		3.7599E-03		14.256E+00
			129.00		3.7203E-03		14.244E+00
			130.00		3.6333E-03		14.250E+00
			131.00		3.5920E-03		14.244E+00
			132.00		3.5500E-03		14.241E+00
		END_DATA
	END_SCAN  10
END_SCAN_DATA
